"accl_x_value","accl_y_value","accl_z_value","gyro_x_value","gyro_y_value","gyro_z_value","mag_x_value","mag_y_value","mag_z_value","action_class"
"2.31039","-1.08385","11.6849","0.0817566","0.0337524","-0.0301971","-8.54034","-27.1072","-44.9707","cop"
"2.19012","0.410614","9.7728","0.069519","-0.01474","0.015152","-8.84857","-27.5375","-44.8685","cop"
"3.07074","0.409882","10.7436","0.29454","-0.190918","0.0629883","-9.98535","-29.0741","-42.9092","cop"
"2.62862","1.35143","10.6126","0.620361","0.156128","0.27182","-11.1496","-32.4844","-38.6353","cop"
"-2.76254","4.08069","17.716","0.582901","0.0431671","0.130203","-10.8078","-35.6155","-34.7443","cop"
"4.127","-0.771866","6.99638","3.19073","-0.318848","1.7937","-17.8543","-41.7358","-18.4021","cop"
"8.1543","-4.81412","0.975967","3.71759","-0.039032","1.82829","-32.1625","-34.7183","10.1273","cop"
"9.705","2.88139","-1.9325","2.59746","1.37642","1.00021","-40.1062","-17.3523","12.8281","cop"
"9.317","2.2502","7.28084","-0.893433","-0.965195","0.533417","-39.9948","-13.6353","16.0294","cop"
"6.74991","-1.14355","-3.39597","1.09952","0.968964","-0.289917","-41.8625","-10.08","12.3138","cop"
"2.49396","-3.92035","8.63037","-3.56409","1.41612","-2.1743","-42.0303","-21.3287","-0.701904","cop"
"-0.481705","-2.33896","14.0136","-3.8232","0.8078","-2.90163","-29.9271","-29.4739","-25.6805","cop"
"-1.1599","-0.592133","12.7919","-1.45309","0.435089","-2.07054","-15.5579","-25.1648","-41.3055","cop"
"0.839294","-0.447693","10.6573","-0.220154","-0.202332","-0.79306","-9.65118","-24.2416","-45.1736","cop"
"1.70969","-1.0309","10.8518","0.00926208","0.00468445","0.00102234","-6.15845","-26.9379","-45.4071","cop"
"0.389511","1.0239","13.5185","-0.023468","-0.0178528","0.0470428","-6.68182","-26.8677","-45.668","cop"
"0.933304","1.16891","14.0429","0.317184","-0.132401","0.228882","-7.9895","-27.6413","-44.4305","cop"
"3.98943","-0.891037","10.2506","2.62231","-0.576874","2.26834","-19.1071","-34.2834","-31.1523","cop"
"7.56735","-2.51932","3.5085","4.48888","-0.2892","2.06158","-34.2697","-34.7","-2.21558","cop"
"5.94411","-0.402069","-6.03012","3.80627","0.558701","1.53505","-41.0339","-17.8482","10.1578","cop"
"9.38942","2.44861","2.19254","-0.925949","-0.36232","0.661682","-42.3599","-10.3485","10.8429","cop"
"7.31877","-0.635483","1.80086","0.761017","0.802109","-0.321487","-43.1778","-8.79364","7.98035","cop"
"3.67111","-1.59088","6.47009","-3.02596","0.906662","-1.62012","-43.6645","-18.0862","-1.52588","cop"
"1.21542","-4.69496","13.809","-3.60699","0.589462","-2.48305","-36.5295","-27.0203","-20.4178","cop"
"0.505737","-2.84476","12.1724","-2.94746","0.361771","-2.43599","-26.6403","-23.8037","-36.0519","cop"
"1.74992","-1.51074","10.9481","-0.739914","0.150833","-1.08568","-19.194","-19.1544","-45.1416","cop"
"1.93903","-1.16905","9.15486","0.455093","0.531265","-0.699402","-12.9303","-22.699","-46.4127","cop"
"1.50572","-0.860825","9.71083","0.0162811","-0.0238342","-0.0239563","-4.4693","-27.8122","-44.606","cop"
"-0.678833","0.791046","13.4814","-0.0411377","-0.019516","0.0361481","-4.94385","-27.7679","-44.9951","cop"
"0.0472717","1.3277","15.7905","0.0328064","-0.276154","0.0744019","-6.54907","-27.6794","-44.6335","cop"
"3.91077","-2.03877","8.1694","2.40845","-0.361938","2.05527","-16.1285","-33.2062","-34.5749","cop"
"9.60317","-1.2505","3.71428","4.04388","-0.475571","2.29294","-31.4194","-37.0956","-7.17468","cop"
"6.58173","1.84366","-0.674774","4.3181","0.837021","1.28543","-39.5981","-23.4528","10.1868","cop"
"8.10039","2.31763","2.69698","-0.827621","-0.285187","0.862534","-42.1524","-14.0671","10.6384","cop"
"9.17632","2.01222","-0.164627","0.858582","0.501694","-0.0144348","-42.8635","-10.9543","9.55353","cop"
"4.09125","-1.42665","7.58176","-1.52133","0.292603","-0.608566","-43.7012","-14.0625","6.05316","cop"
"2.61153","-2.75902","12.1963","-3.53314","0.641266","-1.86659","-41.7389","-25.3067","-7.13501","cop"
"-0.405609","0.913696","12.4855","-2.93829","1.05251","-2.71262","-29.3411","-29.8492","-27.4277","cop"
"-0.510086","-0.647446","10.3035","-1.20236","0.373901","-2.10803","-13.4155","-29.454","-39.4211","cop"
"0.630005","-1.60213","10.0679","-0.289749","-0.233826","-0.424622","-8.37402","-26.1032","-44.7144","cop"
"1.17645","-1.11826","9.6701","-0.183701","0.04599","-0.280792","-8.10394","-24.9069","-46.0434","cop"
"1.76265","-1.1503","10.0466","-0.147598","-0.0915222","0.0791626","-4.35333","-26.2421","-45.8435","cop"
"1.10475","-0.709534","11.381","0.0194702","-0.0884094","-0.0369873","-5.5481","-25.5997","-46.257","cop"
"3.16306","-1.03003","11.2175","1.08258","-0.177933","0.776398","-8.461","-29.1626","-42.1204","cop"
"5.74387","-3.50786","-0.503998","4.01814","-0.717316","2.82243","-23.822","-37.8876","-19.78","cop"
"9.68945","-0.683792","-8.21898","5.28986","-0.279068","1.84363","-35.7437","-28.0655","11.9476","cop"
"12.892","3.56662","6.34872","1.21472","0.637329","1.03195","-40.4449","-8.64105","14.5569","cop"
"5.22089","-2.39748","-2.0975","0.229538","-0.0123749","0.542679","-39.1281","-2.49786","15.21","cop"
"2.78598","-4.75507","-0.402985","-1.02643","0.275375","-0.113953","-41.5573","-2.7771","11.5723","cop"
"7.18391","-2.54158","11.3915","-3.50655","1.73752","-1.6795","-44.6777","-14.8499","-0.357056","cop"
"0.977661","-4.21364","13.2427","-3.9209","1.40892","-1.58852","-42.45","-19.3909","-18.0939","cop"
"-0.705673","-1.7018","11.2348","-2.16566","1.62965","-2.48914","-28.1403","-18.84","-39.4943","cop"
"2.187","-1.07314","9.09811","0.171524","0.930634","-1.82027","-10.6277","-21.6904","-47.0749","cop"
"1.26125","-1.23297","10.5735","-0.0190887","-0.232529","0.0832062","-7.39899","-23.5489","-47.467","cop"
"2.01537","-1.1114","11.3465","-0.0341492","-0.0564575","0.0435638","-4.5929","-24.0646","-43.8324","cop"
"-1.39122","0.959305","15.5244","0.0178375","-0.198883","0.0171967","-6.76422","-23.0652","-44.3207","cop"
"2.09341","0.653763","14.7882","1.89516","-0.480469","1.67941","-13.7222","-28.5828","-36.1893","cop"
"4.19557","-3.06657","6.49017","4.10303","-0.258911","2.81543","-29.9255","-33.0795","-11.9659","cop"
"7.564","-3.89735","-4.20602","4.57228","-0.535385","2.15482","-39.0594","-18.0634","10.9879","cop"
"10.141","2.82011","4.85699","0.168655","0.0139771","1.01881","-39.7141","-2.48871","14.7446","cop"
"8.09784","-6.77921","-8.07873","0.612045","0.326828","-0.131302","-39.3616","0.115967","13.9282","cop"
"1.36179","-4.31609","10.8118","-1.7554","0.662674","-0.216049","-41.5421","-2.1637","10.4813","cop"
"0.201874","-3.62828","15.5044","-3.79652","1.94235","-2.81331","-41.8167","-17.4408","-6.72913","cop"
"-0.0602417","-1.92131","12.6206","-3.5274","0.763336","-2.87402","-29.425","-22.4213","-29.8126","cop"
"0.397247","-2.32927","9.28354","-1.2388","0.378662","-1.58511","-19.9188","-18.5089","-41.275","cop"
"1.42467","-2.0042","10.8017","-0.136459","0.52597","-0.626999","-12.3581","-16.2537","-44.7464","cop"
"0.516159","-1.22929","11.0806","-0.0671387","-0.0384827","0.0473785","-1.9165","-20.7825","-44.0338","hungry"
"5.70184","-2.87958","12.4125","0.550766","-1.12169","1.18404","-8.77228","-20.6421","-42.3935","hungry"
"4.50619","-1.49306","5.86722","3.33192","-3.5153","3.43654","-38.9053","-18.6676","-12.706","hungry"
"1.32304","-1.75484","-1.83133","3.48294","-2.32748","-0.0100708","-40.2801","-11.3388","14.8376","hungry"
"1.295","-7.10971","-2.33257","1.88382","-0.411331","0.0599518","-32.341","-4.11224","27.2034","hungry"
"24.228","-8.62734","8.45325","-0.237289","1.84473","2.01265","-36.7508","7.92694","17.5125","hungry"
"17.1308","-3.8179","7.85245","-1.19218","1.64978","0.67395","-36.3632","19.9097","8.34351","hungry"
"4.78659","3.63849","5.33768","0.345734","0.675644","-2.1783","-43.4784","6.67267","0.96283","hungry"
"6.73743","-9.66962","0.148438","2.50021","-2.39665","-1.50209","-39.9155","-5.79529","16.9922","hungry"
"13.1299","-8.7354","7.51355","1.02998","0.652725","1.3208","-36.8225","1.06201","20.7703","hungry"
"10.4756","-3.94168","9.33897","-1.73955","2.1597","2.04675","-37.5778","16.0568","10.6674","hungry"
"3.49887","-2.83421","7.94893","-2.86816","3.37521","-0.964172","-40.976","16.7389","2.22168","hungry"
"0.987244","-0.638748","11.552","0.0469818","-0.0272675","0.0246735","-6.17523","-22.4304","-39.6286","hungry"
"6.49619","0.906799","15.1099","0.098114","-1.00726","0.457291","-10.556","-22.084","-38.3026","hungry"
"3.66927","1.51402","4.2838","2.69392","-3.11388","2.99361","-35.054","-19.7906","-16.2323","hungry"
"-1.45569","-3.28606","-2.00349","3.48306","-2.1234","0.193726","-40.3351","-12.4664","13.3087","hungry"
"5.57231","-8.06497","0.0686646","1.89296","0.0574188","0.719376","-36.4624","-4.1748","21.9101","hungry"
"21.5886","-8.536","7.44588","-0.816086","1.45522","1.99855","-38.7421","9.57031","14.3051","hungry"
"17.0947","-0.240952","7.62122","-1.26454","1.36256","0.466522","-37.9318","19.0689","8.19244","hungry"
"3.73358","0.954376","0.794632","0.113739","0.335373","-2.08771","-42.746","7.10754","5.99518","hungry"
"-1.22212","0.327316","-0.817566","2.46521","-1.7748","-1.83145","-38.6978","-7.84607","17.0914","hungry"
"7.1458","-12.1664","3.99321","1.34973","0.297867","1.24855","-35.0845","-1.37634","22.8226","hungry"
"12.8368","-10.5763","5.71931","-1.16019","1.89389","2.26593","-36.4441","14.7171","13.7802","hungry"
"6.02834","-5.49246","7.44655","-2.68542","3.34792","-0.900482","-39.3921","17.5934","3.72314","hungry"
"-0.149109","-0.287186","14.1349","-0.0401764","-0.0532837","0.0503998","0.98877","-18.6157","-37.7975","hungry"
"3.61818","1.52455","11.772","0.529388","-1.00014","0.894302","-4.88739","-19.3726","-35.3485","hungry"
"9.30249","3.90491","5.76862","3.04222","-2.87422","3.03262","-29.8035","-20.0073","-11.3174","hungry"
"-0.962997","-5.10507","-0.290985","3.50778","-3.17314","-0.254196","-30.69","-10.5362","27.7161","hungry"
"9.49573","-11.5334","2.90971","1.54391","1.23029","1.32457","-29.9271","0.813293","28.6713","hungry"
"18.8771","-6.17291","9.24348","-0.960541","2.10199","1.96425","-34.14","16.716","15.419","hungry"
"13.9087","-1.27541","7.24409","-1.11276","1.27676","-0.186783","-34.2056","23.024","8.8913","hungry"
"5.05489","0.915543","2.09962","0.311066","0.229309","-2.02359","-39.3082","9.50165","7.12433","hungry"
"1.51767","-0.903778","-0.190323","2.26913","-2.07045","-1.84467","-35.6949","-6.47736","19.87","hungry"
"7.04718","-11.0898","2.54219","1.26363","0.0954895","1.08789","-31.044","-1.52588","27.5818","hungry"
"17.3239","-8.74113","10.2182","-0.790237","1.95006","2.57915","-31.9992","17.0502","17.7155","hungry"
"10.1645","-5.15285","8.40457","-2.51445","2.89986","0.164185","-33.4274","24.1425","9.61456","hungry"
"1.21956","-4.74121","9.95839","-1.48587","4.63069","-3.67334","-37.7548","7.74994","-13.0737","hungry"
"0.337036","-1.37395","9.12529","0.488937","2.4263","-2.48705","-13.7543","-13.3026","-35.0586","hungry"
"-0.0328522","-0.98288","11.6693","0.0327454","0.0177765","-0.0208282","5.44281","-21.904","-35.3149","hungry"
"-0.422775","1.62906","16.9586","-0.0303802","-0.19986","0.0600433","3.79028","-21.4355","-35.9512","hungry"
"0.567947","2.77747","4.35161","1.54074","-1.17273","2.05791","-6.57349","-24.7177","-29.0405","hungry"
"2.79742","-1.09911","-0.984146","3.21674","-1.92664","3.1657","-30.1056","-22.2946","-2.92358","hungry"
"3.17749","-9.03563","3.28737","3.31233","-1.55469","0.992813","-32.6294","-7.70721","22.9431","hungry"
"13.4493","-9.92874","9.16525","0.206894","0.816467","1.74181","-33.1024","5.34973","21.4767","hungry"
"15.3369","-4.27168","10.1192","-1.65605","2.23706","1.68634","-33.4579","20.2057","10.6445","hungry"
"1.45258","0.425079","3.74188","-0.74733","1.2126","-1.93976","-36.6638","14.8697","5.46722","hungry"
"-0.914139","0.143738","-1.22162","1.92473","-0.88266","-1.78769","-38.7741","-4.01306","4.55933","hungry"
"5.99315","-9.20093","1.80203","2.17789","-1.57289","0.207977","-32.7057","-6.29883","24.2493","hungry"
"13.4359","-13.8434","11.3042","0.074707","1.14081","2.55354","-31.3873","9.96399","21.4401","hungry"
"11.9758","-5.20692","7.01427","-1.78358","2.86729","1.62575","-29.0955","26.6052","10.228","hungry"
"6.14986","-5.09905","10.0669","-1.79974","3.14461","-1.6824","-35.1715","22.699","1.17645","hungry"
"1.45619","-3.65581","8.88567","0.420792","3.39844","-3.37596","-33.6975","1.01013","-23.8388","hungry"
"0.472168","-0.984741","11.8792","0.0368195","0.016449","0.0187378","3.6026","-19.5312","-37.4313","hungry"
"3.93774","2.66147","12.7137","0.0497589","-0.367172","0.288315","1.08185","-19.3909","-37.6633","hungry"
"5.56708","1.55006","3.31744","2.36919","-2.30055","2.87524","-17.6926","-22.8149","-23.7396","hungry"
"2.47978","0.60498","-2.62506","3.31621","-3.0802","1.62244","-34.5108","-16.2216","11.264","hungry"
"5.40855","-9.62724","-0.133942","2.83728","-1.07912","-0.113266","-27.0721","-6.40564","32.045","hungry"
"11.7572","-12.473","9.32292","0.267273","1.69223","1.36275","-30.7968","6.27747","25.1831","hungry"
"16.0875","-3.6734","6.06889","-1.72144","1.97418","1.93311","-34.0775","18.1366","13.9282","hungry"
"8.5612","1.31683","4.22581","-0.882217","0.563812","-1.10271","-35.141","18.1717","11.7035","hungry"
"1.01486","-0.496979","-1.41037","1.34595","-0.688263","-2.26811","-38.1958","1.93787","13.1271","hungry"
"2.6297","-5.48466","0.53302","2.15247","-1.59442","-0.917038","-31.1783","-6.07758","27.5406","hungry"
"8.21925","-13.8538","2.91588","0.0781097","1.08118","1.92805","-31.4194","3.69873","25.5493","hungry"
"13.5108","-4.29105","9.30241","-1.89693","2.73079","1.77132","-33.2169","18.4891","14.0976","hungry"
"4.02196","-3.07408","8.93526","-2.38303","4.16345","-2.20683","-38.5666","12.735","-4.02985","hungry"
"0.409531","-2.87129","10.4492","0.0187378","0.00126648","-0.0621033","4.48761","-14.9551","-40.6265","headache"
"-1.3405","-0.934692","16.113","-0.150375","-0.103104","-0.111938","4.22058","-14.5279","-41.2216","headache"
"-5.30125","-6.57562","17.8238","-0.808243","0.382797","-0.268463","5.63202","-10.0266","-42.8879","headache"
"0.634659","-3.05731","0.278671","1.67281","-0.121078","2.93163","6.46362","-12.0117","-38.829","headache"
"-4.04904","-3.81218","-7.05765","5.77245","-6.20149","2.94243","-16.9128","-28.9398","4.97284","headache"
"11.9764","-4.71228","-3.68308","3.19836","-5.45506","0.793457","23.4528","-4.44031","41.9083","headache"
"13.559","0.153854","-2.8539","-0.154709","9.16473","0.420456","-6.18591","1.05896","30.5832","headache"
"4.57959","1.36607","-2.66493","0.270905","-5.39169","0.106201","-28.0365","3.16772","19.9707","headache"
"16.8724","-0.0967407","-1.13339","0.0398102","-4.05574","-0.0907898","26.8341","4.6814","38.4811","headache"
"9.75636","1.74759","4.86346","-0.0466766","10.0498","-0.726791","-15.4327","-0.334167","25.4135","headache"
"4.38232","-0.592728","1.82372","-0.362427","0.838699","-0.674347","-38.4583","-5.14374","1.07269","headache"
"4.47516","-3.60799","12.1308","-2.07771","1.20885","-2.3428","-33.3176","-12.9578","-12.3261","headache"
"2.2077","-2.28635","13.9022","-2.6664","0.138489","-2.42226","-23.9761","-15.6509","-26.1429","headache"
"2.1196","-1.93672","11.8599","-1.01703","0.207153","-1.26512","-18.0008","-14.6149","-34.0485","headache"
"-0.17807","-1.07391","16.3862","0.0122223","0.0504456","0.00431824","-4.953","-14.4379","-40.9897","headache"
"-2.07324","-5.22116","16.5697","-0.313797","-0.0393829","0.144196","-5.69611","-12.3703","-42.1219","headache"
"1.13672","-2.13449","3.64215","1.15808","1.40492","2.19251","-0.96283","-13.797","-39.8025","headache"
"5.54303","0.586014","1.98132","3.98552","-2.19318","3.8913","-14.9628","-26.0178","-17.07","headache"
"27.364","-0.674332","3.41229","4.01459","-9.60674","1.90898","0.558472","-9.73968","37.2681","headache"
"7.74608","-1.3102","4.51733","0.86142","8.24728","0.387939","-0.149536","5.21698","33.2031","headache"
"-8.46876","-7.38594","-8.79863","0.016983","-0.855255","-0.238602","-35.2036","6.87256","11.9888","headache"
"1.52481","-2.27499","-6.20114","0.757767","-8.56206","1.27606","22.0078","12.1902","34.8267","headache"
"12.9931","-1.22656","6.13058","-1.27092","6.49554","-0.331955","16.6809","8.96912","35.2264","headache"
"5.1169","-1.03851","1.01811","0.712646","3.5589","-0.37384","-36.2824","4.89655","12.3322","headache"
"3.10735","-0.992996","-0.0792541","-0.583679","0.517593","-0.706451","-38.1241","0.437927","8.99963","headache"
"4.03516","-1.34485","12.2361","-2.02827","2.01695","-1.62424","-37.7426","-7.83997","-5.38635","headache"
"4.27364","-0.128098","13.573","-2.39671","1.50891","-2.27986","-27.8961","-12.1826","-25.177","headache"
"2.55284","-2.90428","9.02956","0.0415039","0.0588531","0.0186157","-11.8179","-13.9389","-38.9862","headache"
"2.0873","-1.45508","13.0155","-0.174835","-0.0596161","0.136307","-12.4847","-13.2996","-39.4394","headache"
"3.1338","-1.63461","20.9405","0.692963","0.238022","1.54915","-12.9471","-11.9308","-38.2141","headache"
"0.534256","-3.37566","5.39636","4.18895","-1.24306","3.02664","-23.5718","-20.0211","-20.2209","headache"
"9.72411","-0.560654","-11.3978","2.81909","-5.17491","2.5383","-31.0089","-11.4273","19.6259","headache"
"14.1371","-0.616806","-0.188049","1.55176","-6.0954","0.542603","25.5981","5.86853","37.8723","headache"
"22.9357","-0.655411","-14.1354","-0.121475","9.47729","-0.238632","-25.0809","7.01447","20.8084","headache"
"-1.0918","-1.80843","-7.06607","0.833298","-7.60825","0.608002","-15.7227","8.14819","29.3015","headache"
"12.6398","0.555649","-6.56389","-0.375336","-1.39217","0.532196","32.8629","9.6756","34.3094","headache"
"2.2083","-2.81535","1.80104","-0.685562","10.6581","-0.71965","-24.4781","-0.154114","18.4723","headache"
"1.73746","-1.41281","5.31139","0.0488434","0.0683136","-0.608002","-38.0737","-4.55627","0.161743","headache"
"1.37115","-6.46794","11.3396","-1.70621","0.0179443","-1.21893","-37.1338","-11.6241","-2.62146","headache"
"5.049","-3.07074","13.6375","-2.81401","0.835465","-1.38814","-33.5342","-13.8443","-15.1031","headache"
"6.39156","-1.23054","12.2727","-2.05836","0.461807","-1.23361","-28.331","-10.3592","-27.7985","headache"
"2.63153","-1.59305","12.6478","-0.118652","0.0775604","0.0965271","-14.2838","-14.5554","-38.2828","headache"
"-0.282333","0.0917511","18.7778","0.539124","0.673355","0.783173","-12.1506","-14.7079","-38.0203","headache"
"0.69191","-1.21815","12.6093","2.35478","-0.305527","2.34053","-14.209","-20.4773","-29.361","headache"
"3.90115","-2.10185","-9.98384","3.60635","-3.4227","2.49052","-30.7022","-21.3608","3.37219","headache"
"6.90048","0.787582","-4.07697","2.91045","-8.60881","1.15216","13.5834","-0.0213623","39.3509","headache"
"9.18986","2.34991","-12.5477","-1.02954","10.2102","-0.335129","-9.84344","1.48163","28.1204","headache"
"27.6289","3.59276","-13.5144","0.39415","-4.35849","0.720047","-32.605","2.24304","18.5089","headache"
"-2.26045","-2.04175","-10.8682","0.193222","-6.16231","0.768356","28.273","8.2489","35.9451","headache"
"17.3962","2.25929","-12.7721","-0.919281","9.24408","-0.18161","-3.16162","2.92511","32.9147","headache"
"5.01564","0.905869","6.06372","0.0248108","1.4695","-0.737793","-38.9572","-1.81274","8.82111","headache"
"3.24055","-5.55693","15.0265","-1.2742","0.656555","-0.811752","-39.2517","-7.35474","0.782776","headache"
"5.3105","0.256256","14.1551","-3.08076","1.18646","-2.22986","-33.5754","-13.356","-14.9658","headache"
"3.63635","-1.67429","9.22383","0.0331116","0.0215302","0.0227509","-14.4852","-16.2811","-36.4838","headache"
"-0.481873","-0.845856","16.6557","-0.107834","0.114731","0.0253296","-14.6378","-15.7959","-37.0651","headache"
"-0.677429","-1.6154","11.2632","0.561279","1.25404","1.26283","-10.791","-14.7919","-38.887","headache"
"3.25046","0.0701599","0.673782","2.35912","-0.449951","3.39362","-16.0065","-18.9774","-30.1636","headache"
"6.05406","-0.628174","1.64832","2.66939","-6.21695","2.78626","-31.2469","-15.2679","11.9659","headache"
"17.8874","-0.155685","7.65045","1.4953","-6.92163","0.894623","22.02","3.20435","39.1418","headache"
"12.0908","1.98918","-1.82967","-1.21687","10.3364","-0.101761","-16.3681","1.11237","24.6475","headache"
"-5.61632","-5.89915","-4.86623","1.36891","-7.62862","0.0381012","-23.3154","2.01416","25.2914","headache"
"13.8665","1.73875","4.32614","0.196884","-1.78763","0.224869","28.6636","9.54132","36.1114","headache"
"8.06169","0.361176","0.932785","-1.62671","9.08293","-0.436935","-29.4571","-3.19519","19.5892","headache"
"4.45557","0.342163","3.48685","-0.414276","0.932068","-0.817963","-39.1449","-6.69556","1.69678","headache"
"1.61229","-5.05504","8.77029","-1.75464","1.26341","-1.60011","-35.7819","-12.7884","-9.70306","headache"
"3.08566","-1.41762","16.0932","-2.34789","0.277832","-1.87158","-30.1819","-14.9155","-22.2076","headache"
"2.82285","-0.608185","11.4083","-1.06903","0.488159","-1.98004","-20.1233","-18.0161","-31.9092","headache"
"0.214966","-0.500854","10.2084","0.0150146","0.0417023","-0.0334778","-18.7439","2.81219","-34.1278","about"
"-0.586624","-0.420746","10.653","-0.0696411","0.100357","0.0401459","-18.1442","3.23029","-34.5886","about"
"2.60814","-0.499039","14.1216","0.260712","-0.139877","0.37793","-17.5766","3.07312","-34.5184","about"
"5.68486","0.362274","3.45258","0.405502","-1.14789","0.409576","-23.172","2.14844","-29.8645","about"
"1.28226","-1.38174","3.41745","-0.703201","-0.649582","-0.545273","-29.8096","2.52075","-23.4665","about"
"-2.8192","-3.47339","7.97711","-0.869644","0.451996","-0.879379","-30.4901","1.43127","-23.2147","about"
"-5.82414","-4.47714","12.4278","-0.890549","1.61282","-0.082962","-22.3511","4.53339","-31.8054","about"
"0.0643005","-3.52301","15.6338","-0.535706","1.21219","0.880066","-9.46655","12.3703","-38.7436","about"
"-0.210373","0.344391","0.684082","0.572571","0.242111","1.27989","-0.572205","12.4863","-41.0477","about"
"0.42543","-0.765244","14.8773","0.616257","-1.6252","0.0126801","-7.8949","6.67877","-38.6826","about"
"-0.372513","-0.730042","10.1247","-0.0251923","0.0111542","-0.00746155","-19.4122","3.66974","-33.226","about"
"1.27078","-0.20578","11.8803","-0.023407","0.176483","0.113144","-19.1971","4.59747","-33.9355","about"
"7.62927","-0.241257","2.89226","0.285522","-0.748825","0.434753","-20.3445","4.01306","-32.3395","about"
"0.339676","-1.77081","1.41028","-0.22023","-1.40976","-0.504608","-29.5731","2.33917","-23.4222","about"
"-5.56888","-3.24498","7.94608","-0.453552","0.306717","-1.41313","-31.5308","-2.81982","-21.5515","about"
"-5.97063","-5.63916","14.2461","-1.29376","1.25177","-0.309647","-25.2365","-2.14233","-29.0756","about"
"-2.99568","-5.20238","15.8617","-1.26436","1.2715","1.32666","-14.4211","11.6165","-36.6913","about"
"-5.63937","-2.85988","12.7821","0.431778","1.14902","1.16977","0.640869","16.0141","-41.3696","about"
"-0.28717","-0.433502","6.34944","1.01999","-0.84584","0.736099","2.77252","6.69708","-42.0456","about"
"-0.449738","-0.802505","7.90732","-0.385742","-1.49806","0.150864","-11.3449","6.62689","-37.5198","about"
"-0.264145","-0.816483","10.2684","0.15741","-0.151657","-0.296692","-16.0049","6.55518","-35.5209","about"
"0.180084","-0.686462","10.7874","-0.0152435","0.0220795","0.00810242","-18.3289","4.94995","-34.819","about"
"1.39658","0.664169","8.8078","0.198959","0.228485","0.238617","-16.7404","4.71344","-35.3683","about"
"1.28128","-0.869705","5.00377","0.0249023","-0.768082","0.106628","-19.5694","4.62494","-33.2947","about"
"-2.20222","-3.07599","7.5983","-0.275894","-0.499207","-0.704514","-24.5575","3.40424","-29.5746","about"
"-7.76424","-5.2547","10.6933","-0.659286","0.776672","-0.985016","-23.1537","1.7395","-31.1874","about"
"-7.3334","-6.54672","15.9344","-1.20036","1.33151","-0.155396","-14.5844","7.46613","-36.9797","about"
"-1.85583","-3.71201","10.2823","-0.628754","1.03455","1.3761","-1.63269","16.4825","-40.6403","about"
"-1.74329","-1.34909","9.77568","0.483246","-0.189865","1.50165","7.46765","14.1541","-41.925","about"
"1.55818","-1.48541","0.442566","0.319183","-1.784","0.207001","-2.81525","10.2722","-40.1672","about"
"-1.10535","-1.48853","9.60672","-0.197571","-1.01126","-0.435822","-14.9902","8.73413","-35.8551","about"
"0.0429077","-1.05534","9.31476","0.00152588","-0.00750732","-0.00822449","-18.6722","7.08923","-34.0652","about"
"0.0402069","-0.895569","11.2686","-0.0208893","0.0216217","0.00975037","-19.1849","7.39288","-34.6222","about"
"2.70474","-0.308823","10.9368","0.190048","-0.297302","0.19519","-19.4122","6.91071","-33.6121","about"
"6.00365","-0.422852","2.38686","0.646378","-1.18427","-0.319778","-26.1902","2.66876","-28.157","about"
"-3.05215","-2.85634","4.22133","-0.909958","0.105484","-0.879288","-29.5151","0.146484","-24.8459","about"
"-9.04404","-5.58791","11.8354","-1.26854","1.26439","-0.76738","-23.5825","2.76337","-31.2164","about"
"-5.73944","-7.53198","15.0195","-1.41454","1.33621","1.09271","-11.7371","14.1891","-37.7396","about"
"-3.74915","-4.73221","14.801","0.416763","1.12109","1.55754","4.75464","18.8614","-41.2598","about"
"-1.12148","-1.19511","0.452255","0.838272","-1.53856","0.679291","4.28314","10.6415","-41.6824","about"
"0.451035","-1.3765","8.31396","-0.0667114","-1.81078","-0.44136","-15.2039","7.64771","-35.9894","about"
"0.417877","-0.960938","12.7778","-0.046875","-0.0261993","0.000213623","-18.9957","6.81152","-33.96","about"
"3.01692","-0.595459","11.3648","0.0971375","-0.00747681","0.109589","-19.3329","7.02057","-33.9905","about"
"2.86722","-0.880997","2.49654","0.209946","-1.25282","-0.121445","-24.1455","5.45044","-29.509","about"
"-2.27145","-2.6586","3.91917","-0.0581665","-0.586441","-0.395447","-31.5262","3.00903","-22.0551","about"
"-8.31491","-5.3486","8.3905","-1.08452","1.14","-1.26221","-28.7842","0.427246","-25.882","about"
"-6.99988","-7.19688","16.0284","-1.52959","1.64578","0.214722","-16.8457","7.71179","-35.7605","about"
"-4.12932","-4.11755","16.8644","-0.481384","1.10194","1.49478","-2.55127","18.9011","-39.7812","about"
"-1.39346","-1.70807","7.74019","1.00162","-0.191238","1.05299","5.83496","12.8983","-42.0395","about"
"0.53952","-0.730057","6.51091","0.142456","-2.10062","0.508408","-6.75659","8.93402","-39.2227","about"
"0.864639","-0.779968","11.8049","-0.295563","-0.628326","-0.278595","-17.3187","8.70819","-34.6802","about"
"1.44025","-1.16801","9.85506","0.065094","0.0234528","0.0312042","16.0202","10.2798","-47.0642","cop"
"1.62721","-0.455658","10.6591","-0.0282288","-0.0875549","0.025238","15.1596","10.379","-47.7112","cop"
"0.398605","2.04662","15.9974","0.100449","-0.14624","0.0242157","14.0427","9.36432","-47.403","cop"
"4.31079","0.974487","12.3977","1.07759","-0.93837","0.811203","8.43048","4.62036","-46.9345","cop"
"4.42134","-2.1917","9.42838","4.16077","-0.264282","2.31816","0.445557","-23.0484","-32.5211","cop"
"6.54085","-8.88052","-11.0213","4.70454","0.235275","1.29485","-8.7738","-40.1581","2.94647","cop"
"10.0643","10.2158","11.6673","1.33794","0.828003","0.561096","-16.5146","-34.259","24.3912","cop"
"10.8483","-2.65775","-6.26212","0.24884","-0.21965","0.248672","-18.4692","-33.9905","22.9874","cop"
"4.50204","-2.26395","4.40784","-0.98262","0.95404","-0.658386","-20.1813","-33.1192","21.0709","cop"
"0.881332","-5.21927","14.1846","-4.13057","1.207","-2.37946","-9.06067","-36.9293","-9.43756","cop"
"-3.32805","-0.858688","17.1392","-3.17322","0.510345","-2.91626","12.265","-14.7034","-39.1754","cop"
"0.452545","-0.632858","11.2944","-0.965515","0.145233","-1.90155","18.1747","4.93317","-46.5256","cop"
"1.87503","-0.470963","10.7032","0.0184326","-0.00430298","0.00454712","15.9943","9.68781","-47.0749","cop"
"-0.050766","1.14406","17.5659","-0.131866","-0.193268","0.0437317","14.679","9.78546","-47.5967","cop"
"2.33144","-1.58051","11.3665","0.972244","-0.405258","0.973328","11.6379","6.55975","-46.8521","cop"
"7.1526","-3.49713","6.45999","4.32918","-0.257828","2.74812","5.31158","-23.1171","-32.0602","cop"
"11.3493","-0.29213","-10.2202","4.82712","-0.32254","1.63728","-10.1471","-39.653","6.95648","cop"
"9.7252","7.09528","10.4485","0.942078","0.821411","0.702972","-18.6462","-32.2968","25.0946","cop"
"5.7693","-0.489716","-6.61751","0.306046","-0.191132","0.363693","-21.4233","-31.488","23.3017","cop"
"7.68266","-1.93951","2.64891","-0.409973","0.393204","-0.0554504","-24.2737","-28.1708","24.4888","cop"
"5.44846","-3.69986","9.84645","-3.62541","1.17891","-2.20847","-17.3737","-35.7483","1.9165","cop"
"0.541473","-2.22392","15.7499","-4.24615","-0.10907","-2.78999","-0.991821","-23.7244","-30.7007","cop"
"0.452667","0.683197","11.1758","-1.92575","0.816544","-1.86873","9.77631","2.60162","-45.5963","cop"
"0.944534","-0.612152","10.0006","-0.00691223","0.424469","-0.585739","15.6952","7.89642","-47.0123","cop"
"1.11555","-0.718033","8.07169","0.116043","0.0478058","0.0807037","16.1865","6.47583","-47.5891","cop"
"-0.483948","2.45668","15.6247","-0.0487518","-0.279892","0.19371","14.299","7.0755","-48.2193","cop"
"-1.56918","-0.838486","14.8267","2.27336","0.00787353","1.57928","12.9074","-6.4209","-43.7546","cop"
"4.93779","-5.11066","-14.7931","4.72981","-0.403702","3.18323","-0.0732422","-36.6531","-15.686","cop"
"12.822","8.27351","11.205","3.76703","0.769043","0.88063","-15.4617","-37.9593","20.1767","cop"
"7.53088","-4.31438","-21.7499","-1.38205","-0.423904","0.896866","-21.6599","-34.761","21.051","cop"
"7.36108","-1.68459","0.302185","1.34312","0.722641","-0.00572205","-24.5743","-32.0358","22.0184","cop"
"3.34341","-2.37096","6.46547","-1.85146","1.0546","-0.828491","-26.0742","-33.8944","12.2803","cop"
"0.525696","-3.98756","14.5047","-3.37692","0.99675","-3.08495","-8.7616","-36.1847","-15.7181","cop"
"-3.79564","-1.97673","14.0532","-3.09142","0.353668","-2.18684","8.27026","-16.5039","-39.9033","cop"
"1.13991","-0.749664","10.653","-0.996429","0.666687","-2.49448","16.2094","5.98297","-47.6654","cop"
"0.876526","-1.4259","9.8635","-0.274063","-0.240036","0.0903625","15.5029","5.3421","-49.2188","cop"
"-3.84441","2.13524","16.0622","0.248535","-0.234756","0.194931","12.7762","5.7724","-49.6643","cop"
"2.81856","-1.78877","12.8398","2.78972","-0.440674","2.44012","8.34198","-12.149","-44.3542","cop"
"5.69481","-4.09004","5.23584","4.77524","-0.947769","2.32416","-9.07593","-40.509","-12.7426","cop"
"9.68778","0.588165","-8.51614","3.2227","0.749344","1.15202","-20.4681","-37.7823","19.2215","cop"
"9.632","3.51903","8.92752","-0.857849","-0.427811","0.775452","-27.1851","-34.0042","19.3649","cop"
"6.40906","1.65216","-5.21704","0.601501","1.00719","-0.357727","-29.0817","-31.5338","19.9402","cop"
"4.37068","-3.44098","2.93289","-2.6163","0.53302","-1.35037","-25.9399","-37.2696","7.14264","cop"
"0.485596","-3.24901","16.7252","-3.98274","0.618637","-1.71658","-12.9456","-34.4254","-23.5703","cop"
"-1.06573","-0.195435","10.8929","-2.75533","1.34227","-2.1153","3.33557","-10.672","-46.0297","cop"
"0.51651","-1.05812","10.229","-0.0827789","0.944107","-1.61961","15.8463","1.67999","-49.379","cop"
"0.33902","-1.17165","11.6916","-0.494354","-0.35228","0.0921631","15.0345","3.89557","-50.9277","cop"
"-1.6178","2.13254","15.4491","0.753143","-0.0167694","0.369751","12.5961","2.67334","-50.8728","cop"
"1.64","-1.98589","10.3155","2.58342","-0.243881","2.25433","8.83637","-17.2562","-44.1315","cop"
"6.34663","-3.95279","4.75275","3.84087","-0.798035","2.75665","-8.48846","-40.4907","-18.6722","cop"
"7.72015","1.39748","-6.2373","3.41893","-0.117737","1.53061","-24.1714","-39.2517","15.0635","cop"
"10.0312","3.60106","8.56361","-0.880295","-0.364899","0.446381","-28.8879","-35.8917","17.3386","cop"
"7.36562","1.21074","-1.47845","0.740066","0.872864","-0.329498","-29.7684","-34.6588","17.3538","cop"
"4.81224","-1.57224","3.75005","-2.55017","0.564651","-0.92279","-27.8625","-39.0335","5.10101","cop"
"3.21147","-3.34564","10.1224","-3.59344","1.18103","-2.28059","-15.6494","-38.5864","-25.4684","cop"
"-0.21138","-3.41281","14.4904","-2.8526","0.668808","-2.39703","2.75421","-16.745","-47.5601","cop"
"1.06432","-1.37749","9.90285","-0.67662","0.411621","-1.10144","7.42798","0.270081","-52.9114","cop"
"-1.22221","-1.12653","17.6359","0.0701752","-0.106857","0.0876617","12.8174","0.167847","-53.067","hungry"
"4.11778","0.559021","13.3518","0.685928","-0.603638","1.11806","8.55713","-3.44849","-53.0197","hungry"
"-0.356567","-1.31812","-3.00533","3.87898","-1.58698","3.71831","-8.25653","-30.3543","-38.7817","hungry"
"0.557709","-8.06168","-1.61449","4.06766","-2.914","1.54832","-29.0054","-42.5903","1.80054","hungry"
"14.0516","-13.5217","7.71846","0.883896","0.718735","1.65758","-36.7203","-32.283","17.5201","hungry"
"23.1575","-0.707809","6.84653","-1.83611","2.34212","1.57474","-48.4039","-21.0342","-0.946045","hungry"
"-0.295456","0.703491","0.0379944","-0.338074","1.30116","-1.95113","-46.6904","-20.1828","-17.511","hungry"
"-1.66568","-1.96452","-4.2879","2.66333","-1.86191","-1.55276","-34.7656","-38.7405","-4.5578","hungry"
"9.32632","-8.15172","0.404861","1.53775","-0.34819","0.943863","-31.6513","-37.8449","17.7277","hungry"
"16.6392","-5.81598","7.88071","-1.2412","1.92218","2.23819","-44.9661","-26.6449","7.26471","hungry"
"6.54379","-5.94977","6.37617","-2.72922","3.73837","-0.587418","-47.438","-14.0015","-23.4787","hungry"
"0.895279","-2.29034","9.93225","-1.32149","4.07326","-3.6517","-12.117","-10.8871","-52.6352","hungry"
"-0.94902","-1.35921","11.5083","0.524017","1.35217","-1.56013","9.43756","-10.7285","-53.3142","hungry"
"-0.0887451","-0.578934","10.613","0.124496","0.138504","-0.0825043","21.5073","-7.93152","-49.0112","hungry"
"-0.763077","-0.420776","17.2198","0.029953","-0.0657654","-0.00579834","21.3425","-8.60443","-49.2889","hungry"
"6.51331","1.86613","10.633","0.145905","-1.02734","0.47728","16.3635","-9.84039","-50.6577","hungry"
"3.60278","1.95735","-1.37418","2.97684","-2.88911","2.93178","-12.2833","-26.7624","-43.1793","hungry"
"0.204269","-4.06845","-3.06453","3.9706","-2.3427","0.819809","-31.4041","-41.8976","-9.56726","hungry"
"9.46191","-10.9547","1.80722","2.22607","-0.144226","0.601135","-33.1329","-39.3005","15.8676","hungry"
"25.3277","-4.18991","3.55844","-0.871017","1.59247","1.78896","-42.9062","-29.7287","9.27429","hungry"
"8.97624","3.25311","4.14815","-1.08708","1.28401","0.47374","-50.6393","-17.8772","-8.28552","hungry"
"0.431381","-0.944138","0.584381","0.357422","0.445145","-1.70665","-45.3293","-26.2558","-13.8992","hungry"
"3.5289","-4.15038","-3.26744","2.03735","-2.30637","-0.97609","-37.41","-37.9654","6.04706","hungry"
"13.2883","-7.88512","4.12453","0.609024","0.12262","0.830261","-34.4116","-35.8063","18.8721","hungry"
"11.0714","-5.74786","13.8751","-2.37384","2.37926","2.06081","-46.8216","-23.1567","2.04163","hungry"
"4.5304","-2.5495","10.2826","-3.08899","5.03285","-1.91611","-36.5036","-11.2823","-37.6694","hungry"
"0.0552368","-1.52446","8.8242","0.0485077","3.01509","-2.42078","-0.968933","-6.98242","-54.454","hungry"
"0.315277","-1.26826","10.3998","0.0862579","0.0512543","0.0753021","16.7877","-6.62231","-51.619","hungry"
"7.11194","0.454071","8.70541","0.331528","-0.239243","0.392731","15.3671","-9.45892","-51.2329","hungry"
"0.380951","0.385269","1.39601","2.42578","-2.98392","3.67914","-6.27289","-24.9954","-44.2306","hungry"
"1.51221","-3.36975","-1.14275","3.23448","-2.54185","0.86998","-33.2184","-38.768","-14.7308","hungry"
"15.0723","-8.42921","1.6942","2.41399","-1.03136","0.509918","-34.14","-38.6642","15.625","hungry"
"19.2671","-6.15587","6.19951","-0.548264","1.73053","1.33386","-42.3767","-30.3436","11.4578","hungry"
"10.9654","3.44487","5.94083","-1.71994","1.39308","1.17625","-50.7385","-16.095","-7.75909","hungry"
"3.76543","0.244614","1.02209","0.483093","1.16067","-1.87703","-45.6665","-22.0642","-17.6773","hungry"
"2.2027","-2.82938","-2.696","2.46397","-2.20819","-1.29929","-37.6328","-38.2996","-0.984192","hungry"
"15.584","-9.76097","5.20589","1.09875","-0.191833","1.09764","-34.2102","-37.6678","16.8015","hungry"
"12.9187","-4.26466","11.8436","-1.26939","2.04202","2.29416","-46.402","-22.261","6.5567","hungry"
"4.42407","-2.93585","8.56734","-3.27428","4.61079","-2.07713","-41.2598","-13.7665","-32.1869","hungry"
"-1.0813","-1.09964","5.84059","-0.93074","3.7816","-3.13577","-7.67517","-5.60455","-52.7252","hungry"
"-1.02472","-0.6362","11.1853","0.0664673","0.0398102","0.0404663","21.4035","-9.29565","-47.9904","hungry"
"1.63411","1.91786","15.1823","0.107666","-0.535721","0.514099","18.8828","-10.5881","-49.0875","hungry"
"5.67513","0.985229","4.6731","1.92079","-2.26886","2.61502","-0.196838","-24.263","-45.7092","hungry"
"1.09775","-0.364395","-1.31299","3.6011","-2.46831","1.72462","-27.89","-41.127","-17.2546","hungry"
"8.3636","-2.33391","0.851074","2.61049","-1.20319","0.412476","-30.8411","-42.3401","13.0478","hungry"
"11.9507","-15.4721","4.69084","-0.182495","1.57399","1.18575","-38.3667","-35.3714","12.6007","hungry"
"20.8569","-4.70738","8.46858","-1.98837","1.27559","2.6523","-49.7925","-18.2846","-3.56445","hungry"
"7.36613","0.676056","3.36304","-0.213791","1.37651","-1.57762","-48.085","-13.4995","-16.5451","hungry"
"5.12334","0.940918","-1.4111","1.98648","-1.9102","-1.59848","-41.6397","-31.1508","-6.53229","hungry"
"-2.94643","-7.04301","-2.56325","1.2977","-1.05714","-0.272781","-34.3658","-37.9135","15.9729","hungry"
"12.9323","-10.0602","5.19342","-0.312057","1.44847","2.22763","-42.1783","-27.6169","11.8652","hungry"
"12.6604","-5.77277","7.28058","-2.22385","2.94101","0.831711","-49.2538","-11.6257","-12.2269","hungry"
"9.97879","-2.56258","5.71005","-1.66284","3.04254","-2.2139","-35.8963","-7.63702","-39.6118","hungry"
"1.04579","-1.04446","10.6351","0.0342865","0.0125122","0.00152588","16.9876","-9.83276","-49.3286","hungry"
"4.21254","-0.425995","17.6362","-0.223343","-0.612961","0.180588","13.6536","-8.9386","-50.6546","hungry"
"3.55057","0.283752","5.06221","2.34337","-3.06778","2.57034","-8.58612","-18.6798","-46.109","hungry"
"-0.378113","-2.98759","-1.45311","4.04425","-2.78468","0.66095","-32.4905","-38.6841","-11.9064","hungry"
"11.2023","-8.74724","1.82277","2.3663","-0.10585","0.337723","-30.78","-41.4642","14.5599","hungry"
"19.6977","-9.76042","6.20483","-0.443481","1.49438","2.52222","-43.1671","-26.2146","10.7193","hungry"
"14.9958","-4.80301","5.86815","-1.30183","1.65125","1.3828","-50.0076","-7.81403","-7.83234","hungry"
"7.21147","0.544708","2.4771","-0.138519","0.722534","-1.80145","-47.9248","-13.2339","-14.3814","hungry"
"0.827621","-0.0447845","0.477158","1.83989","-1.56322","-1.53452","-42.485","-30.3452","-5.81207","hungry"
"4.53154","-7.67014","-0.297073","1.31972","-0.561386","0.106491","-38.5056","-34.697","13.0554","hungry"
"13.665","-10.3104","4.53993","-0.714371","1.25481","1.94345","-45.372","-24.9908","5.71289","hungry"
"8.40578","-7.63261","4.49394","-1.82854","2.11209","0.988632","-49.5636","-8.6792","-13.1439","hungry"
"5.9633","-3.59769","8.31845","-1.69495","3.95241","-2.64674","-38.4918","-5.62897","-36.6516","hungry"
"0.433502","-1.27499","7.32561","0.0262146","0.0534515","-0.0597076","14.7217","-4.9881","-51.0864","headache"
"-1.81133","0.693359","20.641","-0.195221","0.00480652","0.0118561","14.682","-4.06036","-51.561","headache"
"-2.70703","-6.15648","15.6717","0.655533","0.062912","1.42763","15.4511","-7.33643","-48.8876","headache"
"3.6019","-0.202301","-2.06676","5.43829","-4.70419","2.29077","-5.17578","-37.7411","-26.6403","headache"
"9.88297","-4.54707","-1.36127","3.8922","-6.17912","0.106979","-3.47137","-41.9846","27.4719","headache"
"9.92874","1.22324","4.69647","0.146912","10.1884","0.167068","-28.5477","-35.4889","5.61523","headache"
"-9.97285","-7.82477","-9.09174","0.820724","-9.5052","0.60347","-25.0198","-32.7667","17.1967","headache"
"13.744","-6.06891","18.8917","0.0844269","-0.459198","0.585632","10.6995","-28.3981","35.9787","headache"
"15.5431","4.75977","7.73076","0.30806","8.28113","-0.195267","-35.1746","-32.3181","6.20117","headache"
"4.39151","-0.714508","2.78343","-0.44928","1.27042","-0.79071","-36.3602","-35.4034","-6.34003","headache"
"1.62022","-3.76027","7.08464","-1.69666","1.67279","-1.911","-24.1562","-37.6434","-23.3383","headache"
"3.8443","-1.8064","15.0191","-1.76826","0.766891","-2.77683","-4.00696","-29.8279","-40.7623","headache"
"0.813965","0.203094","12.1566","-1.64903","0.02948","-2.48456","7.49359","-10.3226","-51.0345","headache"
"0.507553","-0.272568","12.0815","0.0825348","0.0912476","0.03508","10.1807","1.41602","-52.2842","headache"
"-5.46725","-4.95782","20.1191","-0.0379944","0.0032196","0.264343","10.0296","1.36414","-52.3209","headache"
"-2.2536","-3.70251","6.9425","0.573837","2.12732","2.42184","23.14","-7.76062","-43.4097","headache"
"11.3027","2.15575","-8.57977","2.47499","-1.21004","4.18042","14.5309","-38.0997","-25.9674","headache"
"0.748489","-3.16675","-8.0006","4.51405","-11.7882","2.42049","-3.88947","-42.54","19.7937","headache"
"8.16721","-1.68497","6.31374","-0.349548","6.8737","0.471146","-5.44434","-32.608","28.1723","headache"
"12.5278","1.86723","0.711578","0.584","0.385193","-0.112473","-37.4603","-33.8837","0.300598","headache"
"-1.51328","-3.50668","-3.97081","1.65161","-8.52036","0.449493","10.5698","-28.1052","35.0113","headache"
"5.83002","-5.72414","6.08694","-0.798233","9.8615","0.254166","-13.298","-30.661","24.3301","headache"
"7.80177","-0.117172","2.71519","-0.200943","1.02061","-0.517837","-38.6581","-32.7255","0.849915","headache"
"3.14661","-1.04294","4.18903","-0.478271","1.5038","-1.22105","-31.5491","-36.8362","-12.7136","headache"
"2.42662","-1.58105","15.4412","-1.93996","0.671143","-2.14381","-16.9846","-36.4578","-27.7588","headache"
"3.70375","0.347183","14.9546","-1.79141","0.576996","-2.3649","-2.20184","-24.5956","-42.6804","headache"
"2.65228","-1.58981","11.2678","0.0739746","0.012146","0.145538","5.87311","0.96283","-51.532","headache"
"-2.55882","-0.761124","19.126","-0.262344","-0.0354767","-0.0128937","5.10101","2.69623","-51.7517","headache"
"4.74165","-2.33073","15.3508","1.13742","1.22769","0.810318","12.3413","-3.81928","-48.1018","headache"
"5.43715","-0.477493","-10.6745","3.54579","-0.45752","3.3232","13.6642","-31.5796","-31.6437","headache"
"7.7196","-1.28387","-7.95941","4.72939","-9.10185","3.312","-10.8063","-44.7922","13.7222","headache"
"10.9469","1.73471","-0.118973","-0.377502","4.09608","-0.163757","-0.764465","-36.2488","30.7541","headache"
"18.2758","-0.114883","-0.772003","0.0534973","3.48035","0.749527","-36.6837","-35.1242","-1.22223","headache"
"3.03299","0.372284","-4.76675","1.36426","-9.5932","0.684204","-2.10724","-29.8904","33.7082","headache"
"2.51802","-5.76112","2.59091","-0.948013","6.30508","0.0791931","-3.30811","-31.2408","33.017","headache"
"9.07725","0.794189","3.02048","0.305634","3.653","-0.72609","-36.7325","-35.6476","2.4353","headache"
"2.92041","-0.129807","3.5748","-0.347214","1.28143","-0.793198","-32.962","-38.6948","-5.16968","headache"
"1.99382","-2.79413","9.39","-1.51395","1.37201","-1.71707","-21.3394","-40.361","-20.6284","headache"
"-0.297058","-3.50826","13.959","-1.9608","0.67749","-2.24266","-3.41644","-31.6147","-37.236","headache"
"1.53613","-0.73085","11.4973","-1.2547","0.182571","-2.47147","9.16443","-16.1163","-46.8842","headache"
"1.69408","-1.58099","9.85382","0.0131531","0.0154877","-0.0252838","10.0449","-0.132751","-51.1414","headache"
"-4.1618","-3.86693","20.578","-0.0330658","0.00790405","0.129013","9.87091","0.254822","-51.5869","headache"
"-0.817947","-0.982635","3.89976","0.549454","1.10666","1.6689","15.6403","-4.6524","-47.5388","headache"
"13.6086","3.9718","-8.01364","2.42523","0.662964","3.89006","16.3895","-33.5297","-30.1727","headache"
"6.68295","-4.45113","-2.39839","4.47215","-10.7683","2.7823","-7.33032","-45.3583","7.99103","headache"
"13.4104","1.52679","8.03863","0.209427","4.36044","-0.158508","-1.47858","-34.9701","30.5069","headache"
"-10.1928","-8.2692","-3.17229","0.0489502","2.24098","0.470322","-36.3358","-35.141","-0.0167847","headache"
"12.9243","-3.3718","16.2853","0.848221","-8.84679","0.828812","0.260925","-29.8462","35.0571","headache"
"10.6115","1.29179","3.57579","-1.58258","9.48537","0.545975","-11.7386","-33.4457","23.2483","headache"
"4.64264","-1.17294","-0.809998","0.116928","1.31136","-0.358795","-35.2112","-34.967","-8.12073","headache"
"3.5657","-1.18082","4.14697","-0.385986","0.428818","-0.864761","-30.3482","-37.6678","-13.1317","headache"
"2.16432","0.465027","14.068","-1.72401","1.11319","-2.33241","-17.0685","-38.2095","-25.7919","headache"
"2.85782","0.384338","13.3904","-1.73549","0.48381","-2.52744","3.685","-26.3611","-42.1143","headache"
"2.8994","-0.997421","10.4412","-0.125809","-0.00808716","0.0691986","4.85992","-0.553894","-52.9098","headache"
"-2.7963","-3.90648","20.5818","-0.460297","0.835388","0.489777","8.41675","1.96838","-50.8667","headache"
"-2.21417","-5.98892","6.0145","2.86493","0.149094","4.16895","18.4662","-19.6625","-38.0829","headache"
"20.8648","1.03102","7.7887","5.57532","-10.9782","2.86783","-9.25903","-44.8273","9.41467","headache"
"9.45479","0.872864","-10.0238","-0.326294","7.83574","0.348419","-10.4996","-36.9217","21.6782","headache"
"3.32166","0.241821","-3.73018","0.572998","-1.9805","0.231644","-35.1105","-35.6323","4.15955","headache"
"25.5792","1.79843","13.4599","1.43875","-7.63916","0.486023","12.0666","-28.9139","35.7391","headache"
"1.14899","-3.97939","0.141022","-1.44879","8.8342","0.955292","-10.6049","-32.7026","24.3973","headache"
"5.13701","-0.280502","-0.0593109","-0.253967","1.42799","-0.748734","-36.7325","-34.6634","-2.69775","headache"
"9.99788","-4.36989","5.07129","-1.45226","-0.623215","-0.239929","-35.1196","-35.9161","-7.26318","headache"
"8.48315","-2.78435","14.2769","-2.86","1.03529","-0.334702","-34.5047","-28.743","-23.4924","headache"
"1.34903","-0.894989","10.3235","-3.06416","2.85515","-1.86703","-16.8564","-9.69696","-46.579","headache"
"-0.0672455","-0.833023","9.2338","0.138229","0.0795898","0.0402985","-5.59845","-29.4006","-37.0789","about"
"-0.977203","-1.09772","14.3888","-0.0841675","0.0194092","-0.00584412","-5.37262","-29.2328","-37.4481","about"
"3.58272","-0.523224","10.5364","0.1259","0.180298","0.310669","-4.51965","-29.3121","-37.0697","about"
"4.98273","-0.664948","6.12344","0.316422","-0.933914","0.643265","-10.26","-31.2973","-34.0118","about"
"-2.38725","-2.19945","5.30553","-0.383347","-0.809311","-0.402618","-19.487","-29.8264","-30.9982","about"
"-5.06041","-4.48077","7.02254","-0.723053","0.245285","-1.29681","-15.4861","-29.4632","-33.2916","about"
"-4.38448","-6.23839","17.6383","-1.22871","1.23544","-0.138397","-4.94843","-24.0433","-40.1413","about"
"-2.19705","-4.23257","18.8029","-0.8228","1.38707","1.041","6.98853","-15.0818","-45.0165","about"
"-1.7903","-3.82787","10.6182","0.300049","0.158813","1.15569","11.1572","-16.7923","-43.8461","about"
"-1.46507","-0.912369","8.9771","0.884399","-0.948044","0.292511","5.3009","-23.6801","-40.4083","about"
"0.207733","-1.05193","7.85477","0.534302","-1.51523","-0.354385","-7.40204","-28.7308","-36.0886","about"
"0.915054","-1.05927","9.91048","-0.338501","0.0245972","0.0139008","-10.0876","-28.8406","-35.6842","about"
"0.355408","-0.829773","9.19855","0.0226135","0.0568542","-0.0206146","-7.87659","-28.801","-36.171","about"
"-0.269974","-1.26688","12.1502","-0.0983124","0.12709","0.093689","-7.547","-28.2791","-36.8134","about"
"3.4339","-0.0439301","9.03885","0.3405","-0.211746","0.263367","-7.79572","-29.425","-35.6827","about"
"6.40652","-0.654617","4.82672","0.178558","-1.05037","0.204987","-15.7074","-30.8624","-31.7764","about"
"-5.48145","-3.56781","7.69963","-0.275116","-0.222046","-0.697861","-18.3273","-31.6315","-30.0095","about"
"-6.43437","-4.99911","13.3499","-0.846237","1.1745","-1.06445","-8.69141","-29.7104","-35.5072","about"
"-4.74341","-4.6533","17.025","-1.18214","1.46706","0.0258636","6.12335","-22.3587","-41.7618","about"
"-3.92813","-2.63176","12.0125","-0.705734","1.05688","1.19974","15.5304","-16.2231","-43.3945","about"
"-1.74759","-1.88713","9.40062","0.453064","0.189468","1.10701","18.8202","-21.0358","-39.7919","about"
"1.1335","-0.849823","1.17194","0.270111","-1.50714","0.590347","7.56683","-25.885","-38.8428","about"
"0.0676575","-1.03102","8.16716","0.331329","-1.17252","-0.370499","-3.65753","-29.0085","-36.5997","about"
"-0.2052","-0.985947","9.60381","0.0195007","-0.085968","-0.0424805","-8.40149","-28.1967","-37.0789","about"
"0.245163","-1.4566","12.1834","-0.0538483","0.00866699","0.0358276","-8.78449","-28.1265","-37.059","about"
"3.34006","-0.915787","10.6512","0.107819","-0.0388794","0.0865021","-8.51288","-28.2776","-36.7523","about"
"4.0053","0.0373688","2.61754","0.471756","-0.919937","-0.372574","-12.2025","-31.2363","-33.3679","about"
"-1.28665","-2.78519","0.458893","-0.360809","-0.988083","-0.674408","-16.1713","-33.3344","-30.2444","about"
"-7.72762","-5.52779","8.72916","-1.00563","1.26782","-0.78215","-10.2371","-29.306","-35.4813","about"
"-7.41582","-6.31741","18.317","-1.4427","1.69467","0.193527","4.82788","-18.4769","-43.074","about"
"-5.90981","-3.90132","15.242","-0.225952","1.38953","1.16626","18.6661","-15.2634","-42.2287","about"
"-3.02708","-2.12285","8.24136","0.270401","-0.253677","1.53632","18.9102","-22.4838","-38.4842","about"
"-3.12389","-0.774323","-0.216965","0.244736","-2.28185","0.121841","3.08075","-27.2675","-38.1348","about"
"0.974991","-1.33124","10.2396","-0.0325317","-0.820679","-0.296066","-8.992","-27.8366","-36.795","about"
"-0.0218658","-0.985458","11.0224","0.0394287","0.00158691","-0.021347","-7.61261","-27.9953","-36.8393","about"
"3.46767","-0.810303","9.34033","0.0267792","-0.0754852","0.0334778","-8.27942","-27.8717","-37.2025","about"
"5.6962","0.234161","4.02293","0.5439","-0.510529","0.168304","-9.79767","-30.7343","-34.3155","about"
"0.890228","-1.38565","0.925583","0.00898743","-1.15532","-0.523788","-15.567","-33.5052","-29.6631","about"
"-5.95665","-3.83379","5.73659","-0.690491","0.452011","-0.917084","-13.9511","-32.7637","-31.2271","about"
"-8.19002","-6.35118","12.8828","-1.30722","1.59267","-0.672806","0.894165","-25.9308","-39.5325","about"
"-5.60405","-7.2429","13.9846","-1.58354","1.05692","0.932037","12.6755","-14.7919","-44.4031","about"
"-5.15862","-3.37448","11.4357","0.527588","1.076","1.46434","20.787","-16.5283","-41.3544","about"
"-1.9292","-1.1499","6.28598","0.437317","-1.02081","0.860092","16.8854","-25.3433","-37.3535","about"
"-0.987595","-1.00858","9.96982","0.287277","-2.1604","-0.509323","-0.245667","-27.4048","-38.1927","about"
"1.61414","-1.8607","9.14433","-0.292465","-0.681305","-0.265381","-8.98895","-27.301","-37.4084","about"
"-2.21429","-2.07899","12.3072","-0.062149","0.0799713","0.0170288","-7.09381","-27.1194","-37.7502","about"
"2.5899","-0.165573","9.94006","0.573883","-0.117203","0.519684","-7.54089","-28.7308","-36.3617","about"
"6.28195","0.342651","3.45004","0.177216","-1.33846","-0.174728","-16.185","-32.3288","-30.6625","about"
"-4.05122","-2.10068","3.09727","-0.335541","0.244034","-0.854568","-16.0355","-32.6508","-30.3238","about"
"-8.41614","-6.93214","10.7129","-1.03107","1.44199","-1.06544","-2.71301","-29.1016","-36.821","about"
"-10.3238","-5.55858","14.855","-1.56253","1.37762","0.129517","12.1277","-18.2098","-42.8635","about"
"-2.27571","-3.41183","11.8094","-0.149612","0.874268","1.20592","21.1044","-15.0879","-41.8381","about"
"-2.30261","-1.48871","5.88676","0.325867","-0.60051","1.0314","19.4504","-22.1848","-38.8657","about"
"-1.85085","-0.958359","10.1313","0.198074","-2.16237","0.0988007","2.92511","-25.5981","-39.2364","about"
"1.40517","-1.30286","8.28444","-0.0965729","-0.113525","0.0113831","-21.4737","10.1059","-38.1699","cop"
"-1.62796","0.159897","15.9644","-0.0151062","-0.0573425","0.0404816","-22.1283","10.5377","-38.2736","cop"
"-0.604584","0.013443","13.6417","1.03535","0.00669861","0.504456","-22.1329","7.61108","-39.0625","cop"
"3.49875","-1.67615","7.25192","3.31508","0.0478516","2.88571","-15.9897","-8.26721","-42.2745","cop"
"8.00793","-4.56775","0.634964","4.58453","-0.465042","1.99539","-20.9198","-31.8039","-28.0472","cop"
"11.6133","7.31903","3.83931","2.88335","0.739914","0.676895","-25.8591","-44.6106","-5.58014","cop"
"5.73581","3.90442","4.8862","-0.963226","-0.553696","0.123734","-28.5156","-42.4988","-6.51245","cop"
"9.32916","1.29652","-4.57252","1.4283","0.692902","0.0749359","-28.0655","-43.7225","-2.09961","cop"
"4.43816","-4.08383","4.50404","-2.5217","0.281281","-1.07042","-25.1694","-42.6743","-10.5789","cop"
"-1.07553","-2.38304","15.4924","-4.46016","0.973694","-3.68806","-5.12238","-25.7858","-37.0834","cop"
"-1.5313","-1.16795","14.2491","-2.68474","-0.449875","-2.39688","-3.35388","-0.480652","-45.0821","cop"
"-0.150757","-0.797119","13.2152","-1.20541","-0.472488","-0.981384","-15.361","14.2136","-40.1642","cop"
"1.08157","0.448669","11.4301","-0.0568695","-0.0596161","0.00505066","-17.9077","13.4979","-39.7125","cop"
"-0.32843","0.588837","15.8216","0.0813446","-0.137146","-0.0111237","-19.2795","14.0717","-39.2609","cop"
"3.77739","-0.0417023","10.3905","2.08725","0.158905","1.52419","-15.8447","6.22711","-43.2114","cop"
"5.39069","-0.269104","7.26166","3.64343","-0.254547","2.39742","-12.9639","-16.3116","-41.4001","cop"
"8.01855","-9.39934","-18.6496","4.25125","-0.0103149","1.47879","-18.5501","-38.1561","-23.2101","cop"
"10.1465","7.05659","7.67853","2.10043","0.558517","0.975845","-24.4888","-46.0144","-0.816345","cop"
"10.4368","0.219116","-4.17445","-1.2061","-0.429504","0.679916","-29.6661","-41.4764","-5.42755","cop"
"10.8876","1.39857","-1.2162","1.14517","0.732132","0.0185699","-31.0074","-41.0858","-3.5553","cop"
"5.1371","-2.01889","4.11511","-2.25349","0.565826","-0.583298","-29.9545","-38.4186","-13.1317","cop"
"3.4536","-3.7238","9.948","-3.68977","0.998428","-2.22192","-16.9357","-26.265","-36.5219","cop"
"-0.657639","-2.69754","13.8063","-3.16624","0.992599","-2.65491","-8.82873","-2.24915","-46.3913","cop"
"0.659409","-1.1288","10.6955","-1.56902","0.450241","-2.10297","-11.647","11.7325","-44.8257","cop"
"0.768448","-1.10437","9.89525","-0.288589","0.0297546","-0.552719","-15.7669","16.51","-41.3681","cop"
"2.16309","-0.492798","11.5545","0.0373383","-0.00862122","0.0483246","-14.8758","14.1953","-41.7603","cop"
"1.07664","0.172333","15.5898","-0.121094","-0.0791931","0.0516052","-15.1993","14.5416","-41.9296","cop"
"1.08913","-1.08257","13.4071","0.68071","-0.258469","0.624588","-15.6616","12.8433","-42.5827","cop"
"5.41763","-1.9128","2.99423","3.3712","-0.607071","2.22438","-13.887","-2.96936","-44.9738","cop"
"8.79744","-3.08035","-2.9955","4.40045","-0.885681","1.77359","-21.55","-29.5029","-31.7398","cop"
"10.5414","4.01868","-0.708649","3.70607","0.504547","0.479218","-26.6663","-43.4097","-7.46918","cop"
"7.13243","3.39095","4.09691","-0.96257","-0.132294","0.42569","-28.891","-43.0893","-4.81262","cop"
"7.94025","1.0999","-8.49481","0.94368","0.373291","0.0467072","-30.2139","-41.8839","-5.69458","cop"
"8.05507","0.3461","-0.703613","-0.595871","0.1548","-0.181824","-29.1229","-42.8162","-5.62439","cop"
"7.40266","0.112259","8.36656","-2.87547","0.692642","-1.13991","-23.7793","-38.4186","-21.9162","cop"
"4.40829","-1.8709","12.1568","-3.52722","0.501053","-1.45679","-16.3086","-20.3445","-40.2573","cop"
"0.853104","-1.67755","11.3166","-2.95535","0.752243","-1.99275","-13.1119","0.128174","-45.4788","cop"
"0.353882","-0.932877","11.5317","-1.06802","0.621704","-1.5318","-13.2111","11.7508","-43.9697","cop"
"1.03746","0.00448608","11.4018","-0.189438","-0.28624","0.131439","-15.2313","14.4836","-43.9178","cop"
"-0.973389","0.485992","16.2615","1.09563","-0.193085","0.865906","-15.1978","11.821","-44.9707","cop"
"5.31268","-0.951538","8.56157","4.0013","-0.631424","2.72498","-15.0345","-8.86078","-46.3562","cop"
"6.32425","-0.895172","3.75699","4.1552","-0.607727","1.65518","-24.6536","-32.962","-29.8904","cop"
"11.8427","1.32539","-4.22725","2.03027","1.06081","0.697693","-26.326","-42.9733","-11.9476","cop"
"7.27057","-3.51286","-19.4046","-1.25336","-0.847137","0.208405","-29.2511","-39.9429","-13.5025","cop"
"8.89888","0.277878","-2.52457","1.28815","0.412552","-0.0337677","-31.1523","-39.5706","-9.67865","cop"
"6.8726","0.769943","5.07176","-1.04668","0.389053","-0.421921","-28.8116","-40.2679","-12.5809","cop"
"2.91267","-3.85226","10.2585","-3.15456","0.80751","-1.2234","-21.0892","-31.5247","-31.5247","cop"
"3.77414","-5.12929","9.31349","-3.22934","0.559036","-1.72484","-13.1729","-11.0504","-44.7876","cop"
"1.40515","-2.92873","11.7354","-2.96713","0.224716","-1.94678","-15.1855","8.87299","-43.9728","cop"
"1.85168","-0.611771","11.0147","-0.949982","0.945023","-1.28372","-19.1391","19.7968","-39.5294","cop"
"1.72514","-1.71935","11.0962","0.0471497","-0.0496368","0.0479736","-15.3473","14.0884","-43.6462","cop"
"-0.735458","0.982422","17.1396","0.176453","-0.183487","0.283829","-17.157","14.9872","-42.9169","cop"
"0.265228","-0.976334","14.198","1.8853","-0.187851","1.62714","-14.3066","7.49207","-46.0434","cop"
"3.26495","-2.9516","6.81741","4.26813","0.0188446","2.61189","-10.6384","-19.2612","-42.5903","cop"
"8.03464","-2.58217","-6.05765","4.2485","0.216187","2.01212","-19.1315","-41.4413","-19.2734","cop"
"8.44913","4.84955","1.37544","-0.104355","0.285873","0.333878","-24.9924","-43.9804","-9.1919","cop"
"10.341","3.11641","-1.19566","0.284515","-0.13765","0.262604","-27.2263","-41.7725","-11.3678","cop"
"9.06291","1.76801","-1.39104","-0.179459","0.623825","-0.270798","-26.0941","-42.9977","-10.3012","cop"
"4.41655","-2.04575","6.73451","-3.22858","0.897583","-1.52513","-17.2684","-36.2457","-28.7628","cop"
"-1.59412","-3.54417","13.5678","-3.85846","1.07722","-2.37129","-5.26428","-11.1618","-46.6125","cop"
"0.0953217","-2.49722","10.823","-2.06517","0.531158","-2.42827","-5.11322","11.3678","-47.2458","cop"
"-0.61676","-0.254929","14.0208","-0.019928","-0.0605316","-0.0440826","-7.86438","16.9174","-44.9982","hungry"
"10.0805","0.494171","11.4543","0.846161","-1.56165","1.32199","-11.7493","14.8712","-45.0638","hungry"
"3.70042","-0.813782","-0.324524","3.82649","-3.26549","2.51262","-27.0432","-0.299072","-39.4302","hungry"
"-0.701019","-2.72392","-2.38976","3.81384","-2.04222","0.126129","-37.2665","-22.3358","-21.6141","hungry"
"11.2905","-7.50269","3.6488","1.10645","0.47464","0.64061","-40.8859","-28.595","-8.35113","hungry"
"24.4809","-6.31485","9.56357","-1.29488","2.00139","1.96962","-42.572","-11.2717","-23.793","hungry"
"13.6614","-1.91669","7.35768","-1.16222","1.08339","0.442902","-33.9157","8.5144","-35.1898","hungry"
"1.71992","0.675797","0.346054","1.09991","-0.155838","-1.87646","-31.0028","-3.27759","-36.1603","hungry"
"-0.555252","-3.98161","-3.54958","1.88791","-2.50545","-1.16051","-40.4129","-22.5159","-15.7211","hungry"
"11.7249","-8.81014","3.58334","0.446579","1.17433","1.13475","-42.5171","-23.8403","-11.4258","hungry"
"14.9741","-5.8055","12.3596","-2.53239","2.78133","1.21085","-38.7024","-2.41852","-31.575","hungry"
"3.53682","-3.7903","7.75581","-2.96619","4.89575","-3.10054","-16.066","18.3685","-43.7942","hungry"
"0.00442505","0.515259","14.5816","-0.168457","-0.263001","0.00799561","-5.26123","14.3707","-48.8266","hungry"
"4.59673","0.923553","10.6895","0.945068","-1.03917","1.30093","-8.89587","12.1262","-48.8403","hungry"
"-0.195221","-2.89893","2.15018","3.45753","-2.75691","3.20866","-19.9539","-4.41284","-45.134","hungry"
"-0.872055","-4.27979","-1.62721","3.14609","-2.15309","-0.153214","-38.3408","-23.4024","-22.4976","hungry"
"10.9902","-12.9409","6.75684","0.825653","1.03033","1.26743","-39.4379","-27.6764","-18.0557","hungry"
"21.2182","-4.70778","11.0557","-1.71593","1.70905","1.93407","-40.155","-7.87659","-31.7413","hungry"
"10.8795","0.0270538","7.42149","-0.988571","1.12648","-0.00982666","-29.5273","9.13238","-41.1606","hungry"
"2.04254","-1.02853","1.37672","1.00601","0.24559","-1.61237","-25.9933","-0.70343","-43.9239","hungry"
"2.13634","-1.1067","-1.64848","2.45233","-2.66232","-1.35741","-35.0906","-23.3276","-27.8046","hungry"
"8.48514","-12.2913","5.8652","0.523438","0.572266","1.41602","-41.3315","-26.2695","-17.3447","hungry"
"14.8235","-6.4581","9.43808","-1.86772","2.47322","1.90466","-38.8306","-3.92303","-34.61","hungry"
"7.68639","-5.52939","10.0519","-2.92162","3.41605","-1.18303","-19.3131","20.0317","-44.0262","hungry"
"1.4229","-3.52696","8.72836","-0.768738","3.95027","-3.47519","-11.3022","24.2386","-43.0679","hungry"
"0.70137","-1.21024","9.00697","0.0344391","0.0180054","-0.0278931","-8.69293","13.7054","-48.6862","hungry"
"-0.732224","0.5979","15.5029","-0.0503235","-0.108978","0.0349884","-8.81195","13.6078","-49.0952","hungry"
"-1.1088","-1.63829","11.235","0.55719","-0.116882","0.501541","-9.3811","11.5723","-49.4781","hungry"
"2.99344","3.00699","-1.82443","2.41641","-1.21501","3.58604","-8.21075","-0.35553","-50.5737","hungry"
"-0.0283356","-2.16847","0.773712","3.61893","-3.42899","2.26236","-29.6158","-19.8944","-35.4401","hungry"
"13.4201","-14.777","6.84099","2.42897","0.27536","0.630859","-40.3473","-29.4662","-16.893","hungry"
"24.4978","-4.61067","9.15802","-0.958099","1.62607","2.67589","-42.7505","-13.8184","-27.8336","hungry"
"11.6263","-2.52753","6.11453","-1.48711","1.474","0.630493","-31.5216","9.82361","-39.2883","hungry"
"4.75645","0.802689","1.97359","0.249969","0.80838","-2.3252","-28.537","2.46582","-40.2039","hungry"
"-1.03683","-1.49098","-4.35486","2.20575","-1.26277","-1.83771","-32.3319","-19.8166","-32.9391","hungry"
"8.59496","-10.1156","3.21104","1.13419","-0.0168152","1.18152","-37.4664","-29.0863","-21.0938","hungry"
"14.2628","-8.55328","12.3812","-1.28488","1.39569","2.26324","-39.4241","-10.7101","-31.8817","hungry"
"7.19765","-5.42369","7.69119","-2.26949","2.41606","-0.0137329","-25.2563","12.0666","-42.8497","hungry"
"2.5844","-5.1781","7.88161","-1.84001","4.41411","-3.02551","-8.90808","22.3618","-42.865","hungry"
"-1.06961","-1.67148","8.93043","0.99295","3.09912","-2.84288","-2.78015","18.1412","-45.903","hungry"
"-0.28389","-1.39183","9.68134","0.0909119","0.0730896","-0.0332489","-2.47498","12.5443","-48.1079","hungry"
"-2.0589","-1.30858","14.3949","0.0424194","0.0319519","-0.032959","-2.21405","12.059","-48.4161","hungry"
"5.44876","-0.665649","12.45","-0.0453491","-0.59787","0.275406","-4.06952","12.2482","-48.2147","hungry"
"2.38606","-0.0835876","0.279755","2.15584","-3.18434","2.95349","-14.2761","7.06482","-45.7916","hungry"
"2.37852","-1.05704","-3.9196","3.98631","-2.26613","1.16011","-28.4561","-12.3474","-37.0911","hungry"
"9.25917","-7.26088","1.60411","2.77441","-1.16402","0.289886","-37.384","-29.2694","-17.5903","hungry"
"12.3784","-10.1699","8.2326","0.0120239","1.14857","1.71883","-40.5487","-23.9029","-17.6514","hungry"
"17.2753","-4.36733","9.38893","-1.9928","2.03999","1.58232","-34.8358","-1.50757","-35.8337","hungry"
"6.19771","-0.38736","4.49214","-0.566162","0.824158","-0.807571","-26.2955","8.81195","-39.3143","hungry"
"0.904114","-0.225601","1.78316","1.73373","-0.544388","-1.88324","-28.0685","-8.06427","-38.1714","hungry"
"4.61981","-4.08762","-1.41626","2.23328","-1.66986","-0.958374","-34.8373","-29.3793","-20.8313","hungry"
"8.96774","-11.6384","5.10951","0.541306","0.488708","1.74458","-37.5687","-29.1748","-15.4419","hungry"
"15.6546","-5.21863","8.10535","-1.38297","1.95787","1.74826","-38.2202","-9.08813","-29.4266","hungry"
"7.55669","-4.44974","6.53447","-2.33434","3.02435","-0.858444","-22.4731","9.42993","-43.3014","hungry"
"0.180145","-0.738159","9.03281","0.0352325","-0.0274963","-0.0670929","-1.08337","10.7147","-48.9304","hungry"
"-0.141907","-1.06833","16.5397","0.21077","-0.84053","0.447037","-4.34723","10.2478","-48.5718","hungry"
"3.20619","0.148956","-1.38327","3.31677","-3.27278","3.2476","-17.0685","-0.334167","-44.8883","hungry"
"2.00539","-2.19522","-2.85797","3.74361","-1.89188","0.667953","-31.5384","-17.4866","-30.8701","hungry"
"12.1252","-9.78628","3.53255","2.41808","-0.804855","0.151505","-36.2869","-30.5679","-12.616","hungry"
"17.9092","-8.62256","4.89839","-0.115677","1.84842","1.88866","-38.6902","-22.6379","-19.5053","hungry"
"12.2667","-0.793716","8.65375","-1.86171","1.99054","1.55054","-30.777","2.11639","-37.7014","hungry"
"5.23668","-0.201889","2.65355","-0.549591","1.19887","-1.74573","-22.3846","7.6355","-40.8081","hungry"
"2.18369","-1.42757","-1.83211","2.02666","-1.80267","-1.82849","-28.8406","-11.6241","-34.967","hungry"
"6.51436","-12.6871","5.33652","2.15132","-0.836639","-0.357498","-34.726","-30.6473","-16.6672","hungry"
"9.74492","-12.0371","8.03976","-0.877167","1.69899","2.50479","-37.6511","-17.5751","-23.6282","hungry"
"11.7542","-4.9592","7.39142","-2.37544","2.83075","0.93074","-24.3408","8.24127","-41.5909","hungry"
"1.3833","-4.46698","7.64435","-1.77168","4.13547","-2.77603","-6.44836","21.3333","-42.3996","hungry"
"0.718536","-1.77361","7.27499","0.0752716","0.0556335","-0.0919647","-7.31201","13.9816","-44.8441","headache"
"-4.7428","-1.99193","16.3114","-0.57782","0.164551","-0.297836","-8.37402","15.2588","-44.2154","headache"
"-7.39439","-7.95619","14.9974","-0.307709","1.38858","2.37128","7.01447","18.2129","-41.5375","headache"
"-2.87543","-4.67706","-1.716","2.81213","-1.93283","4.46886","22.5906","-6.15845","-44.5007","headache"
"-4.16202","-5.04329","-5.56609","5.31648","-10.0016","2.63988","-23.1491","-33.5098","2.82898","headache"
"17.7016","1.89381","-1.06995","0.229477","9.03963","0.30452","-27.4948","-25.6729","-14.6988","headache"
"2.49576","-2.66379","-3.11584","1.21205","-9.29776","0.213242","-26.4633","-24.6887","-9.94568","headache"
"9.61122","-1.90149","-1.10803","-0.0338135","0.384918","0.402664","-16.5573","-22.0505","29.2511","headache"
"5.63551","-0.537064","1.6933","-0.249344","7.92085","-0.533188","-27.9572","-25.4196","-29.0024","headache"
"3.13579","-0.217606","3.29329","-0.249039","1.01114","-0.944794","-18.3609","-26.4984","-39.8911","headache"
"6.49391","-3.5703","14.0934","-2.0697","0.19548","-1.84097","-10.6705","-20.6848","-45.9671","headache"
"6.79498","-0.87149","12.5541","-2.85902","0.234451","-1.13953","-11.731","-2.54669","-48.7015","headache"
"3.37973","-1.9697","9.00829","0.0210571","0.0241089","-0.0282288","-15.657","13.1638","-43.0603","headache"
"2.30644","-0.289917","13.6381","-0.107452","-0.0829163","0.0323486","-16.1957","13.4888","-43.3502","headache"
"-5.33687","-6.15718","18.5273","-0.181168","1.33751","0.26857","-11.8271","14.8209","-44.3054","headache"
"-2.22261","-5.985","3.48956","2.12984","0.986404","3.6443","12.9395","3.79486","-49.5575","headache"
"5.80379","-0.562393","-2.79422","5.40617","-8.69223","3.49023","-16.1804","-30.3757","-23.999","headache"
"10.7722","-2.75554","1.94984","1.65062","-0.973053","0.264099","-20.6421","-26.6342","24.5438","headache"
"9.62936","0.123138","2.61929","-0.769135","7.02686","0.438995","-25.3906","-23.8052","-33.9859","headache"
"-4.51888","-6.95242","-4.1371","1.69623","-9.97543","0.675949","-24.1043","-21.5057","9.32007","headache"
"19.1242","-1.61598","9.94458","-0.52713","3.65483","-0.104233","-16.0584","-18.3136","26.3626","headache"
"6.83903","-0.78746","-0.367096","-0.161392","5.51561","-0.74324","-29.924","-25.6561","-29.0314","headache"
"2.85379","-1.6718","4.12997","-0.273468","0.968597","-0.754562","-25.2594","-26.3199","-34.5657","headache"
"7.08699","-0.58049","10.0251","-1.32803","0.763931","-1.43939","-16.2354","-24.7208","-42.07","headache"
"5.06616","-1.81299","12.9396","-2.56078","0.832428","-1.5878","-9.55353","-11.5723","-49.1592","headache"
"2.92606","-2.48892","6.91925","-0.00105286","0.00563049","0.0223236","-13.6688","15.2969","-42.6758","headache"
"2.51389","-0.689896","14.1896","-0.0970917","-0.0588074","0.180099","-13.826","16.1316","-42.8665","headache"
"-1.63797","-3.98773","15.901","0.841476","1.15138","1.08185","-6.28815","13.9221","-46.611","headache"
"1.79695","-1.11478","-0.374023","2.64848","0.125534","3.75388","12.9227","-4.11682","-50.5615","headache"
"1.09554","-1.85527","-2.17195","4.44415","-9.93553","2.61642","-19.8364","-31.2637","-16.2277","headache"
"14.7364","-0.785248","5.5193","1.23885","-1.56195","-0.0105133","-13.7878","-25.9018","30.3238","headache"
"12.474","0.738464","4.79877","-1.5592","8.2323","0.312057","-28.0106","-24.7589","-27.98","headache"
"-11.4099","-7.27896","-2.09622","1.2007","-9.91014","0.179199","-24.4171","-22.8165","7.86133","headache"
"17.4716","0.145035","13.4598","-0.800034","3.39825","0.293915","-10.7544","-21.17","28.4531","headache"
"6.76004","-1.92917","2.47826","-0.23848","5.90506","0.227112","-31.9366","-21.5744","-28.9673","headache"
"5.82715","-0.426117","-0.590729","-0.217941","1.07768","-0.370453","-24.9847","-22.9874","-37.2696","headache"
"7.15906","-4.2831","12.9805","-1.37495","0.550247","-0.43457","-20.8206","-17.9749","-42.0471","headache"
"6.71092","0.0040741","12.9868","-2.47","1.53941","-1.44382","-11.9965","-3.99933","-49.1196","headache"
"2.51607","-1.61105","11.5609","0.0720215","0.0641632","0.0135803","-13.8657","15.8035","-42.7231","headache"
"0.194641","-1.79082","17.5315","0.0395355","0.0123596","0.422119","-12.4771","16.2689","-43.6127","headache"
"-0.992767","-5.81984","7.75325","1.59116","0.837662","2.4088","0.410461","11.5005","-48.3612","headache"
"12.7327","0.9431","-0.76654","5.44739","-5.26524","3.56166","-10.26","-22.2778","-38.8596","headache"
"15.205","0.244522","5.7321","2.6761","-6.16182","0.350143","-20.1218","-30.4016","23.3871","headache"
"8.12901","0.334137","-2.43683","-1.4115","8.41953","-0.377029","-25.2945","-27.3605","-28.6285","headache"
"-1.38361","-2.21204","-7.26332","1.96831","-9.68233","0.234634","-24.5285","-26.7426","5.40466","headache"
"5.79422","-0.0568542","-4.0168","-0.0726471","0.546692","0.503235","-5.85175","-24.0997","32.9025","headache"
"7.31039","1.02328","-1.69809","-2.69812","8.91286","-0.682922","-25.2075","-30.0781","-26.1398","headache"
"1.36256","-1.31331","3.84488","-1.28395","1.51393","-1.44012","-10.0906","-25.9201","-42.7231","headache"
"3.4003","-3.13821","15.6954","-2.92232","0.845505","-2.06798","0.75531","-9.02405","-50.1663","headache"
"3.45515","-3.19885","14.3462","-1.93283","-0.758835","-0.50351","-3.29742","12.207","-47.8149","headache"
"3.651","-2.27937","13.0525","-0.582733","0.499985","-1.07408","-7.58057","18.1854","-44.5663","headache"
"2.86841","-0.578049","11.4892","0.0643158","-0.000442505","0.0583344","-13.3041","15.3992","-42.7734","headache"
"-1.34015","-1.57118","17.1211","0.193146","0.110153","0.410919","-12.3978","15.4526","-43.6722","headache"
"0.0529785","-3.51526","9.43379","0.805923","1.36937","1.62862","0.282288","11.7844","-48.1888","headache"
"8.4194","1.89476","-7.13994","3.43867","-1.13405","3.30353","10.2509","-12.1811","-48.5458","headache"
"3.98276","-2.67743","-5.89114","4.39799","-10.5976","2.16701","-20.9885","-33.3496","3.33405","headache"
"10.7853","3.18515","5.42479","-1.32217","8.41396","-0.0465698","-24.44","-27.3361","5.17426","headache"
"2.85109","-7.54935","-5.35593","0.706558","-2.30144","0.748764","-24.4858","-22.1146","-30.9128","headache"
"4.51315","-0.849197","-1.95369","1.43726","-6.93394","0.78891","-12.0483","-21.5759","32.5256","headache"
"11.7791","-2.12349","1.8934","-1.26503","8.38086","0.324326","-26.1551","-20.8557","6.84509","headache"
"6.86897","-1.87332","-1.19014","0.385666","1.47781","-0.412003","-29.8279","-19.8578","-31.7795","headache"
"2.00169","-2.81322","0.457779","-0.84964","1.40491","-1.12048","-20.9961","-20.5765","-39.6774","headache"
"7.18292","-1.15741","14.658","-2.45322","0.731979","-1.67972","-10.5041","-10.4538","-47.7722","headache"
"1.56766","-1.99596","16.4232","-2.34894","1.51207","-1.68996","-5.30701","7.70416","-49.0982","headache"
"-0.362518","-1.09349","9.6588","0.0956421","-0.0413818","0.00692749","24.8642","-13.9999","-46.7972","about"
"-0.64035","-1.0696","14.2501","-0.0763855","0.0308228","0.0375671","24.3423","-13.8168","-46.73","about"
"5.46898","-0.270004","6.59413","0.300888","-0.048584","0.548203","25.0427","-16.1194","-45.5536","about"
"4.9407","-0.832733","4.85953","-0.192718","-1.67839","0.0983124","15.5304","-20.314","-46.6125","about"
"-3.94928","-3.99255","3.34123","-0.538681","-0.0654907","-0.631638","7.67364","-14.2654","-48.7579","about"
"-6.20293","-4.23735","9.11328","-0.568191","1.58972","-0.991776","16.5222","-8.42896","-46.9666","about"
"-6.47119","-5.33601","11.4501","-1.12819","1.35213","0.174469","28.2562","-1.54266","-42.4988","about"
"-5.08945","-4.62373","15.9342","-0.516647","0.880432","1.35001","38.3759","-0.502014","-38.2721","about"
"-0.65683","-3.10118","8.80615","0.514648","-0.323471","1.21242","43.0328","-12.6434","-33.876","about"
"-0.345505","-1.48647","2.25879","0.287537","-2.0471","-0.278595","32.1304","-17.5522","-41.0156","about"
"-0.179688","-0.996521","9.37109","0.0900879","-0.384918","-0.471954","23.7915","-15.95","-45.6741","about"
"-0.321136","-1.08917","10.1006","-0.0219269","-0.0603485","-0.013092","23.8098","-15.0299","-45.7611","about"
"2.69421","-1.05066","14.8219","-0.0239563","-0.0709686","0.0692444","23.233","-14.8499","-46.2845","about"
"6.01187","-0.384079","2.92529","0.108704","-1.0589","0.307709","17.6514","-16.0675","-47.3831","about"
"-1.68869","-2.69481","2.43799","-0.233749","-1.29384","-0.549591","6.17218","-16.5894","-48.2285","about"
"-4.18515","-4.01424","6.06656","-0.57695","0.454483","-0.981705","4.98962","-12.1536","-48.526","about"
"-5.48409","-5.16127","13.5045","-1.05209","1.54654","-0.270416","14.6973","-4.776","-46.8323","about"
"-4.05724","-5.25374","21.5102","-0.969574","1.57454","0.580765","26.7059","1.78986","-42.8879","about"
"-5.68767","-3.06453","12.2459","-0.196091","1.05739","1.22636","40.4495","-0.32196","-37.4649","about"
"-1.81981","-2.74706","8.10941","0.570587","-0.34697","1.11563","44.1086","-11.1465","-33.7006","about"
"0.964889","-1.18185","2.87915","0.322418","-2.10199","0.259003","32.0374","-18.2678","-41.4276","about"
"-0.0756988","-0.604675","10.0734","-0.00549316","-0.773865","-0.515457","22.4487","-17.5537","-46.2128","about"
"-0.239365","-1.04965","11.4418","-0.0352478","0.123566","-0.0996704","21.0846","-16.4551","-47.168","about"
"0.0429077","-1.4045","9.5677","-0.0218506","-0.0111084","0.0151215","23.5687","-15.2084","-46.5897","about"
"1.49945","-1.15831","13.6543","0.301208","0.155624","0.285034","24.1119","-16.5329","-46.0419","about"
"2.51077","-0.300461","5.30675","0.207275","-1.1268","-0.0229645","18.6234","-20.0775","-46.4798","about"
"-4.1472","-4.28835","7.10994","-0.379532","-0.712509","-0.856384","11.7706","-17.7475","-48.0926","about"
"-5.31801","-4.92734","7.75223","-1.03941","0.459579","-0.965118","19.1391","-0.126648","-46.9574","about"
"-6.04425","-6.33456","15.8659","-1.18446","1.40919","0.142807","32.7957","1.57928","-41.5817","about"
"-7.72414","-3.37526","16.3744","-0.106964","1.52747","0.757507","43.071","-4.42352","-36.0291","about"
"-0.490784","-2.12503","3.9765","0.725616","-1.44713","0.751495","38.2385","-15.1428","-38.3484","about"
"0.361588","-1.10435","4.5546","0.0942078","-1.30405","0.0163269","26.5015","-18.6493","-44.5465","about"
"0.00480652","-0.948868","10.3329","-0.10939","-0.270935","-0.310745","21.347","-17.0395","-46.8643","about"
"0.178818","-0.76622","8.66231","0.0172119","0.0155029","-0.0386047","22.2183","-15.5884","-46.7346","about"
"0.318985","-0.757706","13.3109","-0.0127869","0.0251007","-0.000823975","22.3587","-15.5746","-46.7926","about"
"2.9252","0.509644","8.81183","0.207153","0.17749","0.175888","22.9797","-16.2552","-46.2448","about"
"3.54018","-0.891174","1.08418","0.477859","-1.09283","0.161453","19.1345","-21.0327","-45.7062","about"
"0.055191","-2.67371","7.00162","-0.561783","-1.19997","-0.180771","7.22504","-19.6396","-47.8027","about"
"-7.46614","-4.70427","6.84142","-0.860748","0.808975","-1.10193","8.12225","-12.5107","-48.439","about"
"-9.72061","-7.28264","11.6179","-1.27431","1.7979","-0.431793","20.1523","-3.14178","-45.4819","about"
"-5.94173","-3.78909","16.1292","-1.05548","1.40466","1.00133","33.5617","3.50494","-40.6265","about"
"-0.0123749","-2.23123","11.982","0.680298","0.416809","1.00252","44.3207","-4.21448","-34.4528","about"
"-2.01077","-0.677872","9.1093","0.526031","-1.27924","0.914612","39.9078","-15.0314","-36.586","about"
"0.0163116","-0.76622","10.9118","0.0801544","-1.72231","-0.248352","25.4456","-17.2638","-44.9738","about"
"-0.384552","-1.05197","12.2493","-0.0643463","-0.0508118","6.10352e-05","23.4222","-15.7257","-46.2219","about"
"4.80054","0.0939178","11.1736","0.232101","-0.751511","0.12767","20.0104","-16.7541","-47.0551","about"
"3.35892","-0.916672","2.41274","-0.142532","-1.39061","-0.623322","8.08258","-16.7816","-48.6832","about"
"-7.42748","-4.95274","8.57155","-0.529114","0.467361","-0.986526","6.98547","-13.4293","-48.4604","about"
"-9.19768","-8.16838","11.0624","-1.11797","1.41582","-0.642731","17.3309","-5.66254","-46.3776","about"
"-5.64613","-6.1151","14.579","-1.4968","1.377","1.15959","27.5085","2.93579","-42.4149","about"
"-2.18326","-3.70811","9.12483","0.243958","1.29146","1.57623","43.1915","-2.41089","-34.761","about"
"-1.44472","-0.746048","7.65402","0.283691","-1.00684","0.9245","43.9926","-14.5493","-32.4341","about"
"0.493057","-0.860718","11.1707","0.0725403","-2.11655","-0.233871","30.4657","-16.4612","-42.8818","about"
"1.05257","-1.64676","10.0394","0.0313416","-0.601318","-0.327133","21.0602","-15.4831","-47.0215","about"
"2.26341","0.718262","11.0662","-0.0153198","-0.0135345","0.035553","-29.3289","-19.0552","-35.5392","cop"
"-1.69148","1.4713","14.6108","0.294083","-0.11824","-0.0032959","-29.8538","-19.7556","-34.7961","cop"
"5.54907","-0.192932","11.1676","2.22369","0.00628662","1.93303","-31.485","-21.1441","-31.7322","cop"
"6.12878","-1.84628","6.38835","4.65883","0.186371","2.30336","-34.5688","-23.5245","-23.3978","cop"
"10.7349","-1.88881","-11.078","4.29796","0.4767","1.31694","-36.94","-25.3357","-14.2044","cop"
"7.06078","6.09","7.24623","-0.936569","-0.372559","0.461105","-38.2095","-22.7341","-13.0569","cop"
"10.3716","0.778076","-9.94725","1.36678","0.242691","0.179504","-38.9404","-20.607","-11.1328","cop"
"4.90024","-3.35484","2.34949","-2.63068","0.96283","-0.952805","-37.5717","-20.1752","-17.8223","cop"
"-0.152954","-3.70267","9.70816","-4.44415","1.0347","-2.89287","-28.9948","-16.1667","-33.8486","cop"
"-1.75279","-1.03474","13.8776","-2.61441","0.646927","-3.06117","-22.9614","-10.6827","-41.8426","cop"
"1.68376","-1.09363","12.5161","0.0831909","-0.0653534","-0.060852","-27.4658","-15.2832","-38.5819","cop"
"-0.769028","2.14311","15.143","0.0105591","-0.176239","0.0265808","-28.8483","-15.3152","-38.1042","cop"
"1.88524","-0.654099","12.0867","1.03769","-0.0904846","0.686508","-29.8904","-16.925","-36.0611","cop"
"5.95634","-1.52562","7.7046","3.46153","-0.316879","2.7527","-32.0816","-19.3741","-31.4026","cop"
"10.4665","-1.38409","-7.51225","4.1796","-0.663177","1.4509","-37.4878","-21.8369","-17.5171","cop"
"11.4989","6.34168","6.65092","2.16321","0.860947","0.711945","-37.5977","-22.9294","-16.1041","cop"
"11.4542","1.39581","-5.46814","-0.689728","-0.707703","0.410202","-39.3036","-18.0878","-12.7945","cop"
"7.30241","-0.598755","-3.21846","1.17982","0.882828","0.156296","-38.3408","-18.1198","-17.4164","cop"
"5.84763","-2.56432","3.48268","-2.88031","0.326843","-0.667084","-37.3184","-15.2557","-20.9015","cop"
"4.57143","-3.39902","9.39662","-3.94342","0.909622","-1.9222","-34.4818","-10.5118","-28.685","cop"
"0.0640717","-3.7142","15.1927","-3.28671","1.02815","-2.26616","-32.0084","-5.88074","-33.6731","cop"
"2.15411","-2.05676","10.498","-1.16911","0.466064","-1.29857","-32.0541","-5.56488","-35.1273","cop"
"1.94063","-2.07796","10.3426","0.0179596","0.155487","-0.297058","-31.7764","-6.84509","-35.6262","cop"
"2.28879","-1.12912","10.9305","0.0436249","-0.0102844","-0.00502014","-26.5808","-14.8209","-38.9511","cop"
"1.76389","-0.191223","10.5938","-0.119537","-0.179276","0.0707092","-27.356","-14.4974","-38.7848","cop"
"-2.07581","1.95151","17.3426","0.0292358","-0.13916","0.0148468","-28.7125","-13.9618","-37.886","cop"
"3.75073","-1.94298","11.577","1.49367","-0.253937","1.10085","-30.1651","-15.5441","-35.6567","cop"
"7.38802","-3.34979","4.91371","4.46934","-0.290833","2.94232","-33.2901","-19.2902","-28.7323","cop"
"10.0421","2.39008","-8.51689","4.56773","0.261932","1.42657","-36.8698","-22.8378","-18.0832","cop"
"7.29018","5.06984","8.65543","-0.504913","0.309158","0.384354","-35.2798","-22.5113","-21.9147","cop"
"11.8429","0.161896","-2.89784","0.732529","-0.404633","0.360367","-38.1882","-17.9504","-16.7618","cop"
"8.08217","-0.226685","1.19257","-0.539734","0.31694","-0.339737","-36.9766","-19.7113","-20.0912","cop"
"5.28375","-1.4131","12.4253","-3.41539","0.428299","-1.17624","-35.4736","-15.6052","-24.3759","cop"
"3.21019","-3.38687","14.1825","-3.98788","0.676437","-1.94247","-33.6731","-9.76562","-30.0537","cop"
"1.88979","-1.17755","11.6421","-2.56624","0.822571","-1.77026","-32.8445","-4.58221","-32.9971","cop"
"0.890747","-0.988159","10.8287","-0.0511475","0.884506","-1.1245","-29.1901","-8.22601","-37.5641","cop"
"1.63324","-1.4671","10.2378","-0.09021","-0.134018","0.0878906","-25.6302","-14.83","-40.5518","cop"
"-1.60139","-0.154968","17.6281","0.0881348","-0.207672","0.153748","-27.7664","-13.2996","-38.9694","cop"
"6.71953","-2.40742","7.51537","2.3004","-0.0718536","1.81032","-28.4958","-16.4902","-37.2559","cop"
"6.49048","-4.33957","-5.74741","5.16551","-0.755493","3.84303","-33.1146","-20.7016","-27.3346","cop"
"9.24734","3.4317","4.80374","3.28151","0.747436","0.579819","-36.9553","-23.4589","-18.3655","cop"
"7.99463","1.85394","4.02768","-1.18459","-0.596832","0.647217","-36.5478","-20.2789","-19.8837","cop"
"8.84929","1.5222","-2.78207","1.42899","0.519318","0.0697632","-38.3255","-16.8533","-17.3935","cop"
"5.00563","-1.63492","3.74683","-0.954514","0.305435","-0.397293","-36.8973","-18.8614","-22.3175","cop"
"3.97127","-2.19112","6.80926","-3.0957","0.931152","-1.49382","-32.6614","-15.1428","-29.4846","cop"
"-0.496857","-5.42636","15.2163","-3.46393","1.11879","-2.60738","-27.0752","-8.97064","-37.5336","cop"
"0.0701752","-1.90131","11.9748","-2.34569","0.277176","-2.3903","-27.5024","-4.1687","-38.7558","cop"
"0.496246","-1.86076","10.736","-0.571869","0.335831","-1.2476","-28.6057","-5.77087","-38.6307","cop"
"1.52142","-0.931274","11.362","-0.14537","-0.226791","0.114151","-25.3128","-14.8224","-40.9012","cop"
"-2.10045","2.10876","17.8419","0.701691","-0.190506","0.6828","-27.655","-13.9816","-38.6292","cop"
"2.59029","-2.97031","10.8126","3.85733","-0.0481262","2.84509","-29.39","-18.7378","-34.3369","cop"
"6.5356","-0.984497","5.06833","4.4277","-0.575089","2.25894","-34.9426","-23.7854","-21.2997","cop"
"7.74806","6.40561","7.37209","2.43613","0.558182","0.654388","-37.2116","-25.8209","-14.3951","cop"
"11.3591","-2.53201","-6.26262","-1.07967","-0.596573","0.693634","-38.5666","-20.0363","-13.7039","cop"
"5.94328","-1.73181","-0.411697","1.29483","0.573593","0.094101","-38.9786","-17.894","-15.3244","cop"
"6.37842","-1.14223","9.73248","-2.68352","0.0899353","-0.524673","-38.4155","-16.9357","-16.9785","cop"
"1.92052","-5.37695","12.7079","-4.01428","1.19615","-1.18616","-35.4294","-10.8444","-25.4395","cop"
"1.13039","-2.10748","15.7259","-3.74551","1.27853","-2.50558","-31.9641","-4.80042","-33.2886","cop"
"1.71758","-2.08537","10.8268","-1.35559","0.501511","-1.20016","-32.8735","-3.17993","-33.252","cop"
"2.39975","-1.6113","11.097","-0.221939","-0.255554","0.100937","-26.857","-14.2059","-39.0381","hungry"
"8.10211","-1.60533","14.4373","1.15453","-1.79671","1.45453","-32.8369","-11.6531","-32.4081","hungry"
"2.74812","-1.61301","2.50337","4.8813","-2.70145","2.58095","-39.9536","-4.0329","-14.74","hungry"
"-0.307159","-3.36238","-1.2962","4.08101","-1.87265","0.291321","-40.4251","-4.35638","-6.06537","hungry"
"10.185","-12.3045","1.7715","0.684052","0.907165","0.901459","-39.9445","-2.25067","-7.3288","hungry"
"24.5147","-7.49048","7.12689","-1.69803","1.68793","2.72472","-28.6575","18.0435","-14.3616","hungry"
"11.3821","-0.213943","5.98839","-0.532455","1.55064","-1.06177","-20.4346","23.587","-14.5676","hungry"
"-0.742691","-6.49509","-1.91521","2.02019","-1.73145","-1.5706","-32.2006","10.4263","-17.5537","hungry"
"8.88585","-12.4496","6.26996","1.49435","-0.97905","-0.289291","-38.5651","0.40741","-7.80029","hungry"
"12.1731","-8.05815","7.3092","-0.654068","1.63908","1.78931","-33.7204","9.02252","-16.0309","hungry"
"5.72981","-5.17764","8.16594","-2.72688","2.8718","0.685959","-19.3924","25.3281","-17.868","hungry"
"0.943878","-2.67137","9.65158","-2.41348","4.60257","-3.19246","-26.1322","21.0129","-13.2874","hungry"
"0.494446","-1.34789","10.0576","-0.0815887","-0.126282","0.0145416","-19.632","-10.17","-39.1968","hungry"
"4.03938","-1.42473","14.5639","0.365997","-0.708832","0.639618","-22.5204","-9.92737","-36.9629","hungry"
"4.6342","-0.420181","7.87347","3.43793","-3.28827","3.73975","-35.4767","-3.76892","-20.134","hungry"
"-0.334076","-3.70073","-1.35805","4.28104","-2.19449","0.552704","-38.9618","-0.569153","-5.41382","hungry"
"5.51773","-6.33104","-0.428085","2.30861","-0.289215","0.51828","-39.2563","-2.85492","-1.11084","hungry"
"12.1763","-13.5123","7.47603","-0.384262","1.39633","2.08801","-35.8856","9.49402","-8.41827","hungry"
"18.9477","-6.02425","8.36783","-1.72482","1.93294","1.37868","-20.5048","28.0243","-14.0274","hungry"
"7.68768","0.604385","3.8546","0.226913","1.24797","-1.83978","-21.6431","24.614","-16.9327","hungry"
"2.66618","-0.612335","0.252701","1.9476","-1.87042","-1.61594","-33.2214","8.73871","-15.6555","hungry"
"-1.57642","-7.58873","0.352295","1.26584","-0.734192","0.0988922","-38.7222","-0.746155","-5.61066","hungry"
"11.2622","-6.45026","4.72632","-0.574692","1.65794","2.5242","-30.7465","15.0742","-11.2747","hungry"
"10.7783","-1.88335","6.92558","-2.14883","2.3231","0.492676","-15.741","30.8456","-12.5809","hungry"
"0.665695","-3.26494","7.63028","-1.47922","2.9225","-2.03035","-18.4174","29.1138","-8.3786","hungry"
"0.682022","-1.42168","11.9135","0.0558319","0.0700531","-0.012619","-19.5969","-5.11932","-34.3765","hungry"
"-0.904831","-2.18662","17.8064","0.0673828","-0.166443","0.0837402","-20.6162","-4.96216","-34.3552","hungry"
"3.57317","-0.87265","7.74019","2.45009","-2.62563","3.19606","-28.8712","-3.65753","-24.6613","hungry"
"1.27525","-0.867905","-1.97304","4.26173","-3.01875","1.83026","-37.146","2.03094","-4.58984","hungry"
"7.26306","-5.49365","0.948608","2.89067","-0.453583","-0.0120087","-38.1775","0.738525","3.29742","hungry"
"17.5321","-11.3084","8.58157","-0.627884","1.24191","1.79068","-35.3012","9.61762","-3.99017","hungry"
"18.7667","-0.918106","8.89595","-1.81645","1.70729","1.41565","-21.6888","28.7659","-8.60596","hungry"
"6.91386","0.346436","3.70934","0.259399","1.26747","-1.64546","-21.9269","25.4517","-11.2045","hungry"
"-4.25993","-2.45052","0.985245","2.48216","-1.92781","-1.44131","-32.9803","8.09021","-10.5408","hungry"
"6.75737","-8.11012","-0.0810547","1.36086","-0.230164","1.06454","-36.6425","3.13873","-4.47082","hungry"
"15.1387","-8.44371","8.11874","-1.14461","1.26503","2.12946","-29.1611","19.2612","-8.49762","hungry"
"8.75438","-4.93665","6.85109","-2.58386","3.13245","-0.320862","-17.2195","32.0801","-7.98187","hungry"
"1.86923","-3.51031","8.2726","-1.87675","4.56871","-3.52226","-25.9537","22.9294","-11.8088","hungry"
"0.714142","-2.15039","11.6044","-0.0699463","1.72043","-2.17371","-26.9531","8.5144","-26.1047","hungry"
"0.283463","-1.93306","12.3751","0.0114594","-0.00952148","0.0355225","-19.606","-2.27203","-31.4087","hungry"
"2.31001","-1.72102","14.8244","0.134171","-0.419037","0.252686","-21.5866","-1.71356","-30.2109","hungry"
"8.27063","0.743622","4.14781","2.52647","-2.2798","3.24135","-29.0405","0.357056","-21.9376","hungry"
"-1.43645","-1.80826","-1.27394","3.96939","-3.23456","1.62894","-35.9909","5.17273","-2.54822","hungry"
"7.79066","-7.51753","1.5024","2.71402","-0.449509","0.174484","-37.4512","1.25275","3.66211","hungry"
"17.3021","-11.8213","7.50122","-0.0939178","0.906189","1.80859","-34.8999","9.76715","-2.06757","hungry"
"16.9683","-7.30843","7.97432","-1.56157","1.90292","2.15114","-18.7531","31.0226","-8.13293","hungry"
"6.8716","-0.31366","5.25041","-0.612503","1.16441","-1.66669","-16.246","31.2881","-5.88226","hungry"
"-2.7657","0.200119","1.03178","1.96721","-1.04289","-2.06956","-29.4174","14.9811","-7.95441","hungry"
"3.73442","-10.0042","0.589569","1.96321","-0.809387","-0.0502472","-36.5631","1.6922","-0.0930786","hungry"
"17.8002","-11.1977","7.25192","-0.346756","0.989899","2.19147","-32.2784","13.0402","-3.45764","hungry"
"12.5114","-5.77769","6.58856","-1.83873","1.93698","1.58405","-16.9601","31.8192","-6.62231","hungry"
"7.36578","-4.26706","6.51489","-2.45345","3.96062","-2.06841","-14.5004","33.165","-0.740051","hungry"
"0.174301","-2.16214","10.3248","-0.170746","5.08455","-3.87384","-25.3967","14.476","-19.6854","hungry"
"0.924881","-1.35283","12.3244","-0.0419769","0.0744171","-0.0364532","-18.956","-3.97339","-30.6824","hungry"
"-1.64552","-1.72804","17.7736","-0.15863","-0.179688","0.0324097","-19.9768","-3.17841","-30.8166","hungry"
"6.53825","0.490585","8.33464","1.57066","-1.58424","2.2917","-24.6277","-2.13776","-26.3107","hungry"
"-0.51384","-2.44498","-2.8287","3.98875","-3.8206","2.8268","-36.1267","4.26788","-3.8147","hungry"
"1.48691","-6.42696","-0.662888","3.47829","-1.34612","-0.0375977","-37.5626","2.70996","5.07507","hungry"
"13.4494","-14.9993","3.7561","0.138809","1.61604","0.666092","-36.7737","4.039","-1.47705","hungry"
"18.479","-6.97388","7.24905","-2.16202","1.2901","2.52451","-26.6739","23.5931","-6.60248","hungry"
"8.47868","-2.14131","4.84766","-0.940506","0.932877","0.173187","-10.6506","35.0235","-2.33154","hungry"
"1.73834","-1.69319","1.41527","1.28391","0.429077","-2.21283","-22.6257","24.8856","-7.43256","hungry"
"-4.63173","-4.7726","-0.56041","2.32582","-2.32748","-1.65764","-35.7376","5.09644","-0.778198","hungry"
"7.90077","-12.6478","1.31218","0.740662","0.789535","1.43217","-36.6165","4.05884","1.45874","hungry"
"10.8832","-7.50417","6.48668","-1.52466","2.04738","2.4679","-24.4446","25.3586","-6.88019","hungry"
"5.38364","-5.23598","9.60863","-2.85469","3.81566","-1.52281","-17.7063","32.8766","-3.24554","hungry"
"0.56163","-2.55409","9.72166","0.00372314","0.0159149","-0.115982","-20.4758","-1.39465","-30.7007","headache"
"-5.38113","-2.42424","16.8861","-0.0997314","0.0217438","-0.122131","-20.3934","-1.7395","-31.3736","headache"
"-6.03033","-6.60011","10.8082","0.122406","0.735321","0.28566","-17.4774","-1.19019","-33.0246","headache"
"4.97466","-1.73199","-7.6362","1.10777","0.628769","4.61426","-4.65088","-0.357056","-36.5326","headache"
"3.1851","-3.59036","-4.30745","4.59824","-9.49423","4.02898","-25.6699","-6.64978","-3.18604","headache"
"6.4109","-2.80516","2.23392","1.54047","0.393784","0.467575","-14.4913","9.5459","34.2331","headache"
"18.7728","-0.820068","10.4256","-0.0748596","5.88023","0.0302124","-23.7335","10.4965","-20.4926","headache"
"9.20319","-3.84775","13.319","0.983139","-10.2749","0.789352","-14.9963","12.3306","27.0523","headache"
"9.70613","0.0685883","7.22296","-0.478271","8.95106","0.0222168","-17.8802","12.9898","18.3807","headache"
"3.60054","-2.75264","-1.97455","0.191376","1.1862","-0.551666","-27.8076","9.87396","-16.3116","headache"
"3.22418","-0.651855","5.8051","-0.0992584","0.903336","-1.31866","-25.7889","4.3747","-22.1527","headache"
"8.82929","0.801819","17.6035","-2.07794","0.350342","-2.59671","-24.8184","0.27771","-24.501","headache"
"5.6261","1.11321","11.3404","-2.14024","-0.461487","-1.77864","-31.9946","-0.0961304","-18.7576","headache"
"-2.43593","-1.94751","20.6773","-0.0566559","-0.01474","0.122604","-31.6086","-4.19617","-21.9482","headache"
"0.0622711","-3.23608","4.50996","0.754517","1.65414","1.39038","-24.8138","-2.11029","-27.7939","headache"
"10.6359","1.88533","-1.26122","3.26923","-0.243256","4.44666","-14.0076","-8.10242","-31.2775","headache"
"13.7935","-2.32501","3.42406","3.41548","-10.0741","3.10162","-26.3672","-4.94537","15.7501","headache"
"22.8145","1.70473","-4.68436","0.261108","5.377","-0.204102","-14.3951","7.36847","31.7871","headache"
"9.73958","-0.52774","-2.26282","0.0146027","2.907","0.478561","-27.2995","9.75189","-19.6701","headache"
"-7.09299","-6.28915","-3.63487","1.17183","-9.41299","0.0739136","-18.9514","9.71832","26.3641","headache"
"13.9651","2.89","3.05034","-0.788406","4.07217","0.240982","-10.0189","11.47","35.6247","headache"
"5.10403","-1.48111","1.722","0.125992","5.20985","-0.176086","-32.2128","6.64062","-11.1694","headache"
"3.71761","-0.250717","2.99173","-0.365265","0.592911","-0.501266","-31.0211","5.96008","-14.801","headache"
"5.79596","-3.59492","8.32347","-1.23679","0.525528","-0.886475","-30.7281","4.95911","-16.2384","headache"
"5.89731","-2.45517","13.5683","-2.78992","0.8134","-1.2683","-30.4672","7.74536","-16.9189","headache"
"3.83359","-1.57011","11.7227","-2.56805","0.594406","-1.70731","-33.4244","9.8465","-13.6002","headache"
"2.95503","-0.561172","12.7794","-0.0224304","-0.0591583","0.068222","-30.8472","-2.33002","-22.0627","headache"
"-2.29306","-3.59485","18.7243","0.653091","0.63002","0.327942","-28.833","-3.12958","-23.6496","headache"
"1.40863","-1.31908","7.19931","1.70114","2.22946","3.59972","-12.7655","-3.39203","-33.6121","headache"
"12.5988","2.24908","-10.6941","1.55936","-1.39342","4.66298","-11.7905","-5.72662","-31.9839","headache"
"7.85339","0.748581","-2.24353","2.07513","-11.2284","1.50253","-18.9941","4.0863","25.4196","headache"
"12.9097","0.475204","-12.8537","-0.810547","9.53119","0.115738","-21.2311","8.9798","12.3917","headache"
"30.2372","4.65428","-7.09633","0.0869598","-4.71701","0.0219879","-27.4643","10.0311","-5.25055","headache"
"-2.23682","-2.14098","-6.86539","0.785492","-5.30637","0.611694","0.111389","12.1185","40.5441","headache"
"12.9178","-1.68652","-2.69963","-1.05174","9.32958","0.112274","-24.733","9.81751","10.6308","headache"
"8.32069","-0.227417","2.85931","0.10231","0.389236","-0.443481","-29.1107","10.1593","-14.0915","headache"
"3.03465","-3.34689","6.0591","-0.464569","1.21602","-1.20149","-28.0716","5.98297","-18.4433","headache"
"7.93065","-1.56473","12.2133","-1.8725","0.168335","-1.39455","-26.947","4.67377","-21.1197","headache"
"2.94708","-2.07356","9.57866","0.0550385","0.00202942","0.0404816","-29.6844","-3.94135","-22.3236","headache"
"0.272736","-0.0446014","15.8847","0.00743103","-0.0478821","0.196106","-30.3986","-3.17993","-22.5067","headache"
"-2.62442","-4.86885","14.318","1.07007","1.8257","1.5023","-21.9498","-2.54364","-29.0298","headache"
"5.88821","0.273773","-6.39795","3.10184","-0.979431","4.81276","-15.1566","-6.19965","-30.7251","headache"
"-3.53906","-4.07718","-1.55156","3.63206","-9.11021","3.17355","-28.537","-2.27509","11.85","headache"
"8.66128","-0.941681","2.89961","-0.663559","3.89355","-0.163284","-14.0793","6.67725","32.7774","headache"
"17.1736","-0.167847","-9.33739","-0.348724","3.12282","0.642151","-27.4475","8.00324","-16.0217","headache"
"6.82632","2.89282","-5.19371","1.59847","-9.67203","0.468094","-12.1536","8.83331","33.6517","headache"
"8.60548","-3.27951","-11.0766","-1.02371","9.12863","-0.335159","-19.4443","7.9422","19.6198","headache"
"8.03535","0.694519","1.94691","0.0553131","0.512985","-0.196762","-32.2022","6.1142","-10.466","headache"
"4.15329","-0.897613","1.96802","-0.522736","0.542114","-0.36322","-30.928","4.68292","-14.4287","headache"
"9.22935","-0.0408783","8.65122","-1.89906","1.00426","-0.812439","-28.6224","7.17926","-17.572","headache"
"2.84947","-0.3508","11.2943","-2.46823","1.3295","-2.16492","-29.1916","8.53729","-18.5822","headache"
"2.36085","-2.02905","12.4762","0.0587006","0.0493622","0.0179901","-29.5105","-3.54462","-22.8226","headache"
"-0.593979","-0.0146942","18.7405","-0.0346985","0.0144348","0.313126","-29.8752","-1.9104","-23.2361","headache"
"-4.03979","-7.81656","5.88298","1.30859","1.30864","1.67088","-23.3383","-1.6098","-28.3615","headache"
"3.69463","0.00590515","0.518997","2.2057","-0.925507","4.99439","-12.738","-3.13568","-32.1426","headache"
"2.35008","-3.15828","-5.07542","2.88544","-7.88664","2.24611","-31.8298","-2.15912","4.35486","headache"
"15.2067","2.26022","0.17012","0.401886","1.07167","0.356049","-12.5916","8.26569","34.9121","headache"
"18.3212","-1.81195","-9.90553","-0.660919","4.58788","0.630966","-28.2059","9.45282","-14.064","headache"
"6.85472","2.32217","-4.77542","1.63934","-9.78577","-0.491592","-16.8243","8.94928","27.7771","headache"
"12.1836","-0.418259","-7.00546","-1.87473","7.33293","0.534973","-15.6326","7.8949","29.1977","headache"
"7.54294","0.330933","1.5732","0.191971","1.97137","-0.164856","-33.49","5.92499","-6.40106","headache"
"3.58102","-1.09084","-0.463165","-0.348007","0.712982","-0.609863","-32.4432","2.96936","-11.969","headache"
"6.3408","-1.28079","10.88","-2.10936","0.813415","-0.80011","-30.954","3.84064","-15.1993","headache"
"7.25987","-1.3136","18.3853","-3.16187","1.12524","-2.16989","-29.602","6.79626","-18.8049","headache"
"4.12018","-2.10458","11.5344","-1.58803","0.542175","-1.55997","-33.3862","5.49927","-15.4556","headache"
"-0.274567","-0.897354","9.59393","0.0129242","-0.0962067","0.0457001","7.15942","14.0442","-34.465","about"
"-1.53735","-0.791717","9.70573","0.0204315","0.0751495","0.0285645","7.83234","13.8031","-34.3094","about"
"0.231735","-0.7621","14.4934","-0.00660706","-0.098587","0.345932","8.45947","13.7909","-34.169","about"
"5.73503","-0.372147","4.66107","0.553467","-0.584869","0.932648","7.6889","11.3434","-34.9884","about"
"4.91789","-1.22276","1.06848","-0.530518","-1.36723","-0.186615","0.32196","11.4029","-33.8181","about"
"-3.52951","-3.48531","4.76111","-0.467224","-0.0833283","-0.958389","-8.36639","13.5681","-30.1239","about"
"-7.42433","-4.08887","13.2298","-1.14189","1.78922","-0.553299","-3.40271","16.7221","-29.7638","about"
"-5.8009","-4.36432","20.0349","-0.832764","1.8658","0.846161","12.7319","22.5632","-28.2074","about"
"2.34651","-4.80365","16.1297","-0.0415649","0.579773","1.70235","28.9749","20.192","-26.3107","about"
"-2.32951","-0.894424","13.1518","0.272964","-2.2272","-0.0424194","25.1953","14.7552","-30.5786","about"
"0.320267","-1.4326","10.2191","0.0123291","-0.000595093","-0.0152588","9.45282","15.271","-33.6166","about"
"0.909897","-1.81395","16.1261","-0.0939941","0.123444","0.052002","9.8465","15.9393","-33.7997","about"
"7.15353","-0.782593","4.81381","0.283966","-0.472504","0.416275","10.2661","14.5691","-33.989","about"
"1.78474","-0.799881","2.32948","-0.0262146","-1.20367","-0.277206","1.45721","12.9379","-33.609","about"
"-3.56162","-4.29979","5.9176","-0.547501","-0.0100861","-1.20985","-5.13153","13.2599","-31.2836","about"
"-7.78214","-5.52245","15.0539","-1.18048","1.6611","-0.765793","-1.68762","17.3874","-29.8141","about"
"-5.93608","-5.37262","19.743","-1.18385","1.54826","0.719528","11.235","24.9329","-26.9608","about"
"-0.290833","-4.36702","10.6611","0.065918","0.67279","1.59097","26.6678","25.0107","-24.1394","about"
"-0.052536","0.304977","6.74377","0.660767","-1.16158","0.939133","31.4163","15.6952","-27.7496","about"
"-3.55591","-1.64601","7.75232","-0.0530853","-1.71648","-0.328644","18.9606","13.6612","-33.3084","about"
"0.642212","-1.12595","11.1192","0.0244141","-0.0010376","-0.0347748","10.6308","15.1459","-33.5709","about"
"1.11191","-1.51015","11.6093","-0.0650024","0.0534821","0.0265961","10.466","15.303","-33.9935","about"
"4.99091","-0.313293","6.10295","0.328659","-0.13237","0.348953","11.348","14.2609","-34.1415","about"
"0.695145","-1.30167","1.83099","-0.110779","-1.63112","-0.399582","2.5238","12.9196","-33.9325","about"
"-6.12408","-4.58568","7.42319","-0.483841","-0.0914764","-0.854446","-6.60553","13.3102","-31.2271","about"
"-9.29556","-6.20312","14.4299","-0.960617","1.79713","-0.788925","-1.67236","17.3828","-30.3604","about"
"-5.13493","-5.1814","15.8085","-1.354","1.67342","0.411987","11.2503","23.9166","-27.7786","about"
"-2.15842","-3.4494","11.9252","-0.211258","0.671585","1.36339","25.264","26.3977","-24.2569","about"
"0.112305","-0.341629","3.85565","0.881393","-0.69635","1.10637","32.46","17.4393","-26.3687","about"
"-0.473587","-1.1281","6.09554","0.0198517","-2.49298","-0.182541","19.4504","13.7558","-33.1345","about"
"0.221985","-0.904251","10.2522","-0.10997","-0.434967","-0.296265","7.48291","14.5248","-34.024","about"
"0.885544","-1.51967","10.5858","-0.0469971","0.146118","0.0258331","6.96259","15.1642","-33.6365","about"
"0.627212","-1.13536","10.0379","0.00721741","0.0133514","-0.0265961","9.2926","15.0452","-33.9615","about"
"1.40256","-1.05521","15.424","0.0852356","0.189682","0.0935516","10.7315","14.7995","-34.1705","about"
"4.86606","0.0679932","6.78674","0.332047","-0.951828","0.331955","9.05151","12.1323","-34.8175","about"
"4.14172","-1.09529","4.52481","-0.379639","-0.630936","-0.692352","-0.860596","13.1348","-33.3817","about"
"-5.55637","-4.23796","7.755","-0.453354","0.612656","-1.18303","-3.08685","13.6551","-32.1503","about"
"-6.44823","-6.79848","12.528","-1.53561","1.34985","-0.250305","3.09448","20.1599","-29.277","about"
"-6.8839","-6.65912","20.3507","-1.11084","1.26158","1.27779","16.1957","28.1845","-23.6694","about"
"-3.13184","-2.56337","10.1779","1.17693","0.65889","1.10628","31.0089","22.644","-24.1379","about"
"0.177429","-0.0179749","9.13858","0.454712","-1.51779","0.555283","28.8681","15.1718","-29.5547","about"
"0.809586","-1.21767","10.8428","-0.0545807","-1.53748","-0.256561","16.6306","13.1973","-33.7769","about"
"0.1035","-1.00298","11.3443","0.0391235","-0.00244141","0.00700378","10.1105","14.9521","-33.7051","about"
"-1.65346","-1.26848","13.9484","-0.122513","0.103195","0.035675","9.81751","15.6891","-33.9935","about"
"5.43329","-0.194183","5.3215","0.228806","-0.0955963","0.338486","11.5646","14.9536","-33.8928","about"
"1.40421","-1.4856","1.54523","0.309906","-1.53926","0.208481","5.05218","11.2442","-35.0174","about"
"-6.50134","-3.70879","3.62885","-0.341248","-0.0832214","-0.993866","-3.65601","11.6241","-32.8567","about"
"-9.05354","-5.1301","12.0797","-0.773834","1.4767","-1.14059","-0.363159","13.5651","-32.4997","about"
"-7.32535","-5.33777","17.7579","-1.63837","1.72003","0.196564","11.6684","21.7819","-29.0955","about"
"-4.02412","-4.47473","12.2569","-0.37529","0.474228","1.2643","25.2838","25.3967","-25.0977","about"
"-2.12422","-1.49841","10.0336","1.12245","-0.48735","0.563675","28.7003","18.7057","-28.7094","about"
"0.528702","-2.24799","-0.0416718","-0.152328","-1.87485","0.922379","21.933","12.2681","-33.139","about"
