"accl_x_value","accl_y_value","accl_z_value","gyro_x_value","gyro_y_value","gyro_z_value","mag_x_value","mag_y_value","mag_z_value","action_class"
"-0.760513","1.56081","10.1026","0.0316162","-0.354614","-0.648239","-8.33588","11.2152","-46.0312","0"
"-0.388046","0.662796","11.47","0.116058","-0.370148","-1.07977","-13.295","9.68323","-44.8807","0"
"-0.45256","0.151978","11.1746","0.417755","0.00511169","-1.20488","-17.2668","4.78668","-44.0735","0"
"1.65227","0.659424","9.16698","0.0878143","-0.987946","-1.41695","-20.2057","-0.863647","-42.1234","0"
"1.60901","0.445099","10.8394","0.16449","-0.43396","-1.35666","-27.2339","-6.90765","-36.9354","0"
"-0.692123","0.905273","6.28819","-0.07547","-0.561508","-1.59802","-26.3855","-13.8275","-35.1166","0"
"0.0689087","1.73169","6.51605","-0.410049","-0.353394","-1.06459","-25.7141","-18.7164","-32.9224","0"
"0.643036","1.10727","8.75897","-0.215012","-0.235046","-0.866882","-23.3734","-20.1721","-33.6533","0"
"0.193283","0.990066","9.45134","0.363068","-0.421661","-0.28067","-22.8439","-22.171","-32.1945","0"
"0.0760345","1.17445","9.00111","0.0217438","-1.13031","-0.494446","-25.6348","-25.5798","-26.9791","0"
"4.20659","0.243195","9.12126","0.102524","-0.525131","-0.365112","-27.5574","-26.7517","-24.2096","0"
"3.37846","0.563354","9.94046","-0.488678","0.602051","-0.53215","-24.3164","-27.42","-26.0956","0"
"2.65253","2.28136","9.89412","-0.258545","-0.293106","-0.761841","-20.3033","-27.9144","-28.2455","0"
"2.11342","2.29636","9.94585","0.0362396","-0.145218","-1.12383","-16.0431","-29.6631","-28.6057","0"
"0.556122","1.61725","7.7083","0.555069","-0.0574799","-0.833435","-9.20868","-33.5815","-26.3916","0"
"1.4012","2.04697","8.79065","-0.4189","0.138245","-0.140228","-6.46057","-33.2016","-27.5665","0"
"1.68188","1.30325","10.1098","-0.294754","0.145432","0.0157776","-6.00281","-31.5201","-29.5609","0"
"0.584488","2.69952","9.34347","-0.113129","0.230942","-0.225693","-4.32434","-29.9515","-31.5247","0"
"0.656235","2.49174","9.81857","0.165222","0.042099","0.032547","-2.74811","-30.5832","-30.9616","0"
"-0.270401","1.53949","7.88684","0.0872803","-0.104889","-0.0705261","-3.24554","-31.3705","-29.5059","0"
"-0.2621","2.37086","6.40326","0.378326","-0.260941","-0.525192","-1.32599","-32.3074","-28.1952","0"
"0.65303","1.44403","11.8121","-0.165344","-0.117798","-0.899078","2.01416","-32.637","-27.7573","0"
"-0.00196838","-1.69122","13.9591","-0.393036","0.308228","-1.62218","12.3154","-27.1759","-31.1951","0"
"0.375763","-1.65889","9.97109","-0.285614","-0.692108","-2.62607","21.7499","-16.8747","-34.4681","0"
"-2.23608","-1.15924","8.56227","0.665527","0.397705","-1.90379","25.5539","-7.47681","-36.1969","0"
"-3.88196","-3.326","12.1842","0.752502","0.384979","-2.75284","30.5099","1.77155","-33.1253","0"
"-4.59616","-2.97842","11.4846","0.842606","-1.02446","-2.76149","21.3593","13.3835","-38.1012","0"
"-0.920181","2.24709","7.64754","1.04161","-1.30519","-0.867859","6.67267","12.9776","-43.5364","0"
"-0.355057","2.0217","7.35681","0.565506","-0.117538","-0.301651","1.23291","7.31354","-45.1706","0"
"-0.668625","0.732864","9.25531","-0.0874329","-0.485458","-0.785553","-2.09198","6.90613","-45.108","0"
"-0.342224","1.04161","9.06662","-0.504959","-0.532516","-1.04778","-8.26416","9.77478","-44.0018","0"
"-0.0188293","0.84108","9.78065","-0.376678","-0.224777","-0.671997","-13.5056","11.467","-42.2012","0"
"0.918289","1.49893","9.34888","0.0230255","0.00559998","-0.266388","-15.1566","11.6455","-41.7542","1"
"0.891357","1.50607","8.95381","0.150253","-0.396835","0.198151","-16.9296","10.7758","-41.8869","1"
"-0.992462","2.02615","18.0163","0.950699","-1.00008","0.772461","-22.6807","8.65326","-39.1922","1"
"0.313705","1.37697","17.3457","5.81909","0.359329","1.92459","-23.5886","-12.5153","-34.9289","1"
"6.85965","4.5733","-4.88739","3.59198","0.139511","0.210953","-27.536","-35.7086","-6.6925","1"
"9.88089","-4.00056","-26.5461","0.416504","-0.0293121","0.355682","-27.5223","-35.7346","-7.47528","1"
"5.55652","-4.19026","1.28409","-1.65623","1.24954","-1.34749","-23.3322","-36.8988","-8.69446","1"
"-6.17577","-3.34726","21.4494","-5.73865","1.38354","-3.61581","-3.6026","-11.441","-41.983","1"
"-6.34692","-0.942169","13.7516","-1.73256","-0.575943","-2.29874","-6.25458","13.8443","-44.3115","1"
"-0.723495","0.186066","9.01205","0.145554","-0.0242615","-0.0513306","-10.1669","16.4398","-42.5217","0"
"0.842697","0.705627","13.7208","0.0831604","-0.170959","0.0796661","-9.74731","15.1871","-43.5898","1"
"-4.70781","3.05153","15.0177","1.03156","-0.294006","1.04626","-10.6995","12.8235","-44.5374","1"
"1.94708","-11.1998","-20.7185","5.70117","-1.84106","4.34581","-19.9478","-9.58557","-38.9114","1"
"11.5008","9.82828","12.5178","2.88058","-0.367157","0.139404","-32.0923","-30.1727","-15.0574","1"
"7.77396","-4.36848","-2.08049","-0.253632","0.330902","-0.0644836","-30.7861","-31.0333","-16.2857","1"
"1.45595","-6.61168","9.60977","-1.78282","1.09369","-1.43738","-23.851","-32.28","-21.2982","1"
"-3.9435","-7.52887","11.468","-4.36827","0.942566","-4.76799","-1.50757","-7.2113","-44.7678","1"
"-2.63254","2.00748","13.5837","-1.15466","-0.517258","-1.71504","-6.91833","13.5223","-44.635","0"
"-1.20297","0.282745","9.23236","0.0420532","0.219711","-0.497391","-8.6792","14.6957","-44.1025","1"
"-2.77463","1.58774","12.4466","0.509888","-0.26329","0.688889","-8.85773","12.7914","-44.664","1"
"9.32922","-6.00876","0.578415","4.23792","-1.5961","3.85651","-13.9114","-2.78473","-43.602","1"
"7.11504","3.4464","2.31204","4.42166","-0.224609","1.31667","-30.0003","-29.0909","-19.8791","1"
"10.1402","-0.148438","-7.49498","-1.12042","-0.34726","0.0943603","-30.6946","-29.8782","-19.1422","1"
"6.88483","-3.63409","4.40218","0.593369","1.08987","-0.794601","-26.7532","-32.9773","-18.4692","1"
"-6.86128","-2.50179","13.8126","-4.60423","1.34509","-3.38747","-9.38263","-17.6819","-39.7827","1"
"-2.19818","1.27927","12.6691","-2.63771","-0.442505","-3.27383","-3.15704","10.9879","-45.2209","1"
"-1.90569","-0.740234","7.91808","-0.238327","0.180618","-0.742935","-10.2158","17.3111","-42.6621","0"
"-1.1515","1.22137","12.2055","0.248489","0.0785522","0.0117493","-8.86688","15.6281","-43.0557","1"
"-4.1386","1.35407","14.5656","1.14783","0.0303345","1.02139","-7.77283","11.7264","-44.7708","1"
"9.29889","-6.77007","6.82951","5.56499","-2.25858","4.17073","-18.7805","-11.2442","-38.2874","1"
"4.40683","-0.407227","-7.87775","2.64313","0.705139","0.0747986","-28.7384","-32.3578","-16.5436","1"
"8.99326","0.566864","-4.15851","-0.399139","0.118393","0.271683","-29.3671","-29.7745","-20.3262","1"
"7.49738","-2.80577","5.51851","-1.00964","0.714554","-1.16997","-22.6501","-32.2357","-22.9645","1"
"-2.88722","-2.52753","14.8994","-4.42741","0.902878","-4.48441","-3.73383","-9.67407","-43.132","1"
"-2.91623","-0.315994","13.5187","-1.82475","-0.567368","-2.28804","-6.94275","13.7726","-43.3243","1"
"-1.32681","1.3679","11.6473","0.11673","0.215057","-0.449219","-10.4568","15.9958","-42.2028","1"
"-5.16429","-1.3157","15.53","0.274323","0.0618591","0.193161","-9.53522","14.4287","-42.9794","1"
"9.43387","-5.34818","6.78593","1.86626","-0.51004","2.16472","-8.87909","7.55463","-44.2413","1"
"6.02997","-0.856262","-4.03722","5.95137","-1.28848","3.58987","-22.5647","-18.6829","-32.3898","1"
"6.55832","2.70245","3.58911","-0.0467072","-0.0191956","0.0986328","-27.3605","-31.4468","-19.0582","1"
"7.55031","-3.14935","2.35866","1.34967","0.605011","0.0720978","-28.476","-29.7943","-20.0562","1"
"-3.27663","-2.52997","20.044","-2.88687","0.667435","-1.84744","-19.3954","-29.4418","-26.8295","1"
"-2.98709","-1.16333","17.0077","-4.13672","0.909256","-3.79642","-3.0838","-1.04675","-44.5145","1"
"-0.399887","-2.00635","7.90392","-1.3195","-0.272186","-1.666","-7.02515","17.1036","-41.7374","0"
"-1.63782","-0.995148","11.2831","-0.257462","0.083786","-0.821487","-9.78546","18.8187","-40.8752","0"
"-1.47163","-0.932739","10.3454","0.215851","0.0630951","-0.105148","-11.5753","18.1198","-40.4282","1"
"1.11423","-3.19722","9.85815","1.49855","-0.12085","1.32379","-10.8887","13.0966","-42.9688","1"
"2.91707","-3.44739","9.59076","5.3918","-1.8204","3.92862","-18.6081","-10.4752","-38.9053","1"
"6.5399","8.64891","11.8513","2.61989","0.696701","0.757477","-28.1433","-31.1661","-19.5831","1"
"12.4155","-2.68233","-13.9588","-0.0808563","-0.0806732","0.139069","-29.8538","-28.6392","-21.2051","1"
"5.16785","-1.69032","3.56744","-0.797607","0.887604","-1.20697","-22.818","-32.1136","-23.14","1"
"-7.34055","-2.57024","18.3032","-4.29164","0.993271","-3.48436","-6.53534","-12.2681","-42.424","1"
"-4.80135","-0.666107","18.4257","-2.1483","-0.0194855","-2.53459","-5.20935","12.5015","-44.3314","1"
"-0.510467","-0.65184","8.46474","-0.317551","0.182098","-0.598557","-7.54395","17.5751","-42.366","0"
"-2.59366","-1.1382","14.842","-0.0835724","0.0594025","-0.389374","-8.22144","18.1427","-41.5649","1"
"-2.59296","1.26102","14.3775","1.37782","-0.454376","1.15701","-9.99756","14.3402","-42.8635","1"
"7.68304","-6.70519","3.94275","5.0302","-1.32527","3.67628","-14.7827","-8.69598","-40.9988","1"
"10.4938","-1.48105","-9.58542","3.08575","0.546967","1.34558","-27.0447","-31.2714","-20.929","1"
"7.18813","8.19983","12.0558","-1.18187","-0.519638","-0.0213928","-29.4159","-27.9251","-23.0835","1"
"4.39705","-3.64944","6.92828","0.77002","0.954575","-0.442993","-25.5554","-31.5979","-21.788","1"
"4.10503","-4.60808","9.39157","-4.4129","0.988602","-2.9409","-12.915","-18.3701","-38.6765","1"
"-5.08508","-0.0804138","25.1064","-3.0322","-0.297714","-3.24875","-6.53839","9.85107","-45.079","0"
"-1.68901","-0.342117","7.16022","-0.256561","0.416306","-0.945099","-12.5046","16.7603","-41.6794","1"
"-1.39758","-0.150375","9.78493","0.188309","0.0813293","-0.0454712","-11.0901","15.6433","-42.482","1"
"2.13686","-5.15982","10.8889","1.22578","-0.0673065","0.999832","-10.4813","11.8866","-43.7653","1"
"11.5785","-5.08191","-13.5518","5.13142","-1.50916","4.09377","-16.8564","-10.0647","-39.8331","1"
"9.08566","11.8817","15.7833","2.32092","0.972305","0.592331","-26.358","-30.9509","-21.756","1"
"14.575","-1.56851","-11.7348","-0.526062","-0.382416","0.00706482","-27.858","-27.301","-25.0977","1"
"6.97148","-1.51143","9.36371","0.0502472","1.17456","-0.946594","-21.6492","-31.6711","-24.7375","1"
"-2.64886","0.217087","15.513","-4.11655","0.572006","-3.38664","-6.71692","-13.9481","-41.8976","1"
"-1.5199","-1.23479","10.1827","-2.44954","-0.691284","-3.01105","-5.81055","11.5814","-44.31","1"
"-0.704422","-0.847687","10.7299","-0.522781","0.393188","-0.918442","-13.2126","18.0313","-40.6143","0"
"0.0474243","-0.140701","11.444","0.130341","0.1539","0.0522919","-12.0102","17.6224","-40.7349","1"
"-3.12064","0.938431","16.0922","0.772858","-0.0596771","0.69075","-11.2503","15.4282","-42.4316","1"
"-3.00998","0.722946","15.2383","3.60857","-1.00333","3.00909","-12.999","0.610352","-43.8828","1"
"14.0706","-1.73155","-10.5802","4.97574","0.423294","2.05246","-23.0392","-26.8204","-27.4658","1"
"12.2228","-1.11801","-9.71162","-1.14058","-0.40416","-0.0486298","-22.5052","-31.6788","-23.851","1"
"12.1891","-2.7946","-9.27408","1.66803","0.889297","0.247269","-26.4252","-31.1081","-21.9345","1"
"10.8603","-2.8199","-5.93788","-3.27683","0.457184","-2.36067","-15.8813","-27.4368","-31.7398","1"
"-7.53066","-1.13278","17.0558","-3.76982","0.272781","-4.65349","-0.163269","2.5177","-45.5536","1"
"-2.15932","-0.691223","10.4056","-0.571106","0.0554657","-1.11267","-5.74036","16.8488","-43.3945","0"
"-2.79109","-0.507996","9.72148","0.181793","0.136322","-0.160019","-6.89087","16.6016","-43.0267","1"
"-4.95702","1.70242","16.6698","0.826401","-0.615158","0.846588","-8.95233","14.1541","-44.1086","1"
"10.6182","-4.37282","-14.8204","4.60014","-1.43475","3.52452","-14.8422","-6.22101","-42.7505","1"
"5.11082","9.84668","16.9221","3.92108","0.474731","1.20412","-26.8448","-31.9885","-20.4041","1"
"13.37","-2.87433","-13.7444","-1.35843","-0.521713","-0.14679","-26.9531","-29.9057","-23.7549","1"
"12.1919","-2.27657","-11.7394","1.27191","1.13707","-0.206711","-25.2335","-33.9478","-19.6213","1"
"-2.17738","-0.954376","11.8465","-4.17758","0.511276","-2.76466","-13.5925","-22.6944","-36.8622","1"
"-0.474564","-0.632095","11.7086","-3.51355","0.0776978","-3.27048","-3.3783","7.94525","-45.784","0"
"-0.45224","-0.846634","9.75101","-0.676559","0.0816498","-0.774643","-9.375","18.8889","-41.9128","0"
"-4.13542","-0.484604","14.0649","0.307022","0.329254","-0.180573","-8.89435","18.4341","-41.951","1"
"-5.04968","-0.291473","15.9547","0.702896","-0.606888","0.903427","-9.82208","16.1438","-43.1641","1"
"11.6193","-8.25253","-7.85507","4.47058","-1.09789","2.79991","-12.3474","-3.52783","-44.0872","1"
"7.19113","7.68462","9.44925","4.90025","0.554367","1.59256","-24.9725","-34.2087","-18.8202","1"
"11.3077","-2.99234","-14.5024","-1.38069","-0.477615","0.315765","-27.5055","-32.5424","-20.3461","1"
"6.27338","-3.57149","4.77493","0.942245","0.944382","-0.345795","-26.2955","-34.874","-17.4194","1"
"4.65611","-4.64386","4.98726","-4.9476","-0.0829315","-2.06841","-19.1605","-21.2326","-35.8185","1"
"4.49138","-0.512619","15.2384","-3.67888","0.27301","-1.98888","-16.4047","7.44019","-43.045","1"
"-0.88678","-0.814102","10.55","-0.691223","1.13353","-1.04797","-11.8484","16.0309","-42.3813","0"
"-0.565613","-0.409256","11.1788","0.0502777","0.175095","-0.12619","-10.6644","16.9678","-41.9647","1"
"-1.93552","2.01532","17.9724","0.915665","-0.318527","0.93866","-9.48029","14.3097","-43.8019","1"
"8.42996","-6.04796","6.3811","5.04147","-1.90897","2.82669","-17.4393","-7.57294","-40.8615","1"
"8.44817","-2.02646","-12.7461","3.68642","0.808487","0.885666","-28.3264","-32.8384","-17.5674","1"
"4.76624","3.01747","9.58913","-1.37988","-0.781357","0.119308","-30.2948","-29.4067","-20.3323","1"
"11.167","-1.84425","-1.68484","1.28551","1.04045","-0.270996","-27.9907","-33.5175","-16.3864","1"
"3.26321","-2.09163","6.85774","-4.48352","1.0208","-2.76056","-16.2476","-22.1283","-34.7076","1"
"-6.60237","-4.28166","14.1004","-3.83864","0.947189","-3.33981","-1.47552","10.3928","-43.9316","0"
"-1.2522","-0.531235","10.1582","-0.447617","0.1091","-0.455902","-4.58527","21.7377","-39.5355","1"
"-3.72838","1.04733","12.2779","0.349213","0.0274353","-0.0251007","-3.9566","20.8115","-40.0909","1"
"2.40164","-2.49292","13.1291","1.20821","-0.332672","0.901077","-4.37927","15.7242","-42.746","1"
"3.51544","-4.02592","12.2166","4.73817","-2.3278","2.84421","-15.0772","-6.91833","-40.686","1"
"10.6772","-5.60239","-13.9753","3.79205","0.544601","1.1758","-28.0853","-32.4905","-16.8823","1"
"14.3675","-2.97736","-13.755","-1.51831","-0.487549","-0.0869141","-28.8513","-29.5502","-21.2006","1"
"2.40645","-4.41885","5.91275","1.01233","1.80269","-0.498627","-23.4436","-33.2489","-21.0297","1"
"0.48407","-4.68532","10.4709","-4.21614","0.872879","-3.11537","-8.88672","-18.7439","-38.6124","1"
"-3.18886","-0.971649","11.9577","-2.79382","0.534714","-3.53687","3.11432","11.6287","-43.6905","0"
"-1.62401","-1.65611","10.1414","-0.368637","0.0368042","-0.686234","-3.84979","21.1945","-40.2222","0"
"-0.550034","-1.17937","10.4589","0.324219","0.237656","-0.0515594","-3.71552","20.5475","-40.5502","1"
"-5.76601","0.475266","16.6475","0.324966","-0.2901","0.302765","-3.75671","18.6874","-41.803","1"
"-4.7605","0.328888","16.3179","2.75124","-1.30933","2.37642","-6.94275","7.33948","-44.696","1"
"11.1412","-1.0527","-8.79492","5.94246","-0.456879","2.58987","-22.4014","-25.3464","-28.5706","1"
"4.91972","9.08012","21.9683","-1.94066","-0.508347","0.112396","-24.7025","-29.5349","-24.7025","1"
"13.4267","-4.90533","-13.8948","2.10439","0.79834","0.685791","-29.2969","-25.5173","-24.6689","1"
"13.0755","-3.61824","-10.7704","-1.71565","0.894974","-1.6469","-19.6854","-29.0421","-28.1693","1"
"-7.48526","-2.76642","14.7798","-3.77769","1.29857","-4.07602","-1.45569","-5.75714","-44.1376","1"
"-1.33279","0.532318","9.90552","-1.17381","0.0870972","-1.84789","0.1297","14.7491","-43.5455","1"
"-2.01823","-0.215744","9.37058","-0.00918579","0.335632","-0.312988","0.949097","16.7664","-42.9321","0"
"-0.547852","1.4613","11.797","0.154556","-0.418274","0.228119","-1.11847","16.6641","-43.3197","1"
"-6.44215","-1.51289","15.1929","1.47524","-0.463013","1.17386","-2.93732","10.7681","-45.0531","1"
"11.177","-6.65231","3.33731","5.69348","-1.83705","3.64713","-18.8309","-18.2816","-35.1578","1"
"10.7626","2.88153","8.33435","0.0505219","0.325821","0.416412","-25.3555","-31.9031","-21.9467","1"
"8.94951","-4.79965","3.05205","0.921066","0.416962","0.109436","-29.2175","-26.5244","-24.8215","1"
"1.54996","-2.84746","8.47475","-1.01965","0.552933","-0.766251","-22.6746","-31.9778","-23.9471","1"
"-2.53752","-4.66281","14.0449","-4.70709","1.20679","-3.9964","-8.45184","-8.99963","-42.9398","1"
"-1.45242","-0.944611","11.2909","-1.95154","0.281647","-2.70387","-3.69263","15.715","-43.0206","0"
"-0.352676","0.231674","8.69424","0.0394135","0.160782","-0.303146","-7.78046","19.2947","-41.5894","1"
"-4.56255","1.71916","15.3386","0.314423","0.0639038","0.282211","-5.45044","17.0624","-42.8802","1"
"5.16791","-4.44672","11.9966","1.40967","-0.328476","1.44623","-5.76019","11.7233","-44.7647","1"
"7.83046","-5.01091","11.7359","5.38884","-1.38617","3.67688","-15.4984","-15.3687","-38.1042","1"
"6.65018","11.1615","20.1588","1.15627","0.863266","0.547577","-21.2357","-34.6848","-21.344","1"
"13.9068","-1.26341","-12.1908","0.134323","-0.469254","0.255157","-27.6489","-29.1779","-23.6969","1"
"1.06865","-4.60123","10.5926","-0.527664","0.89502","-1.17368","-20.0058","-33.963","-23.1873","1"
"-6.02995","-2.98065","23.0249","-4.24904","0.734421","-3.74126","-3.2135","-12.9501","-42.3492","1"
"-7.08357","-2.70305","21.3237","-2.30229","0.0839996","-2.42752","0.228882","16.1484","-43.0603","0"
"-0.453217","0.65451","10.7937","0.0833588","0.0519104","-0.0298157","-2.51312","19.3497","-41.7908","0"
"-4.62617","0.312988","13.0413","0.186798","-0.0641327","-0.0900574","-2.36511","18.0878","-42.2958","1"
"-5.15196","1.02087","14.201","1.32759","-0.597824","0.936157","-4.37317","13.2721","-44.1406","1"
"8.08302","-7.83627","-11.1034","6.22966","-1.51199","3.69225","-15.7608","-16.0538","-36.6577","1"
"8.79616","-8.66362","-16.8939","0.694962","0.709045","0.44632","-22.4136","-35.8307","-18.8583","1"
"11.3151","-0.495361","-3.40787","-0.0834656","-0.324829","0.387238","-28.5767","-28.6881","-23.32","1"
"8.68182","-3.61229","6.92444","-0.242737","0.839539","-1.01431","-21.7545","-33.7845","-21.2448","1"
"7.58786","-4.1893","6.52019","-4.87157","0.36438","-3.98175","-7.65076","-11.4532","-41.7648","1"
"-2.53499","-1.04103","15.6387","-2.09492","0.17099","-2.68288","-5.28564","14.8346","-43.2068","0"
"-0.602219","-0.380508","10.1912","0.0389252","-0.159698","-0.143951","-9.935","17.8162","-41.2216","0"
"-0.798187","0.496262","14","0.102219","-0.0610504","0.378296","-8.2489","17.0181","-41.9403","1"
"-6.07291","0.672211","13.6013","1.09248","0.18399","0.864975","-6.51245","13.3072","-43.6371","1"
"6.95212","-8.98138","11.2031","5.49661","-2.21268","3.54909","-16.0492","-10.6171","-38.3972","1"
"9.51221","9.58673","13.5275","2.16156","0.585754","0.666046","-28.2486","-33.4427","-15.6006","1"
"6.87087","5.35738","10.8334","-0.526825","-0.517807","0.483231","-33.6884","-26.4786","-19.3222","1"
"13.2068","-3.0338","-10.5167","0.500229","1.43005","-1.00482","-26.0818","-33.0322","-18.6096","1"
"-6.27272","-4.52399","14.4805","-5.06442","1.03357","-3.94693","-6.50787","-13.9389","-40.567","1"
"-6.47035","-3.71902","13.4782","-2.26512","0.268936","-3.34528","-2.57416","17.6636","-41.9983","0"
"-0.911453","-0.277847","10.6398","-0.018692","0.150055","-0.37088","-8.61969","20.6833","-40.7761","0"
"-3.97566","-0.490387","13.5882","0.349472","0.229965","0.142654","-6.71082","18.5074","-41.8564","1"
"-3.1158","-4.10574","16.4285","0.446091","-0.37532","0.859467","-6.6925","17.0502","-43.0252","1"
"12.871","-7.63231","-13.2614","4.64995","-1.58054","3.8791","-10.672","-2.74506","-43.3655","1"
"11.7549","-7.72101","-12.8852","3.64691","0.253387","1.8784","-25.6638","-31.691","-21.9254","1"
"12.21","-0.666519","-3.22731","-1.39272","-0.785355","0.259491","-32.3288","-25.8408","-23.2864","1"
"8.46605","-3.49472","6.79628","1.39696","1.7202","-0.744324","-26.7792","-31.8329","-21.0022","1"
"6.75378","-4.21423","6.44363","-4.81911","0.697144","-4.32378","-7.81708","-16.5787","-39.7552","1"
"-1.20369","-0.634125","13.806","-2.57463","0.0503387","-2.85744","-2.19879","14.1632","-43.9652","0"
"-0.239868","-1.17136","9.33929","-0.259521","-0.231552","-0.470062","-7.79572","20.5215","-40.9241","0"
"-0.540924","-1.3801","9.94803","0.0535889","0.095871","-0.364151","-9.60236","20.6238","-40.8783","0"
"-1.35193","-0.92096","7.29294","0.203979","0.11821","0.0177155","-9.79767","19.7235","-42.2333","0"
"-3.73019","1.25603","16.6617","0.526367","-0.477448","0.625259","-10.0021","17.8406","-43.4051","1"
"-3.68843","0.967163","15.9642","4.02901","-1.23174","3.3833","-12.2391","2.2644","-45.2301","1"
"10.0842","-2.21434","-10.1683","4.64076","0.150986","2.20364","-25.3159","-30.2032","-25.824","1"
"4.94087","7.16838","12.739","-1.79808","-0.777802","0.299377","-31.2256","-25.7065","-26.4038","1"
"15.2792","-2.3678","-9.77666","2.06784","1.42126","-0.0883331","-28.6026","-30.5984","-23.2788","1"
"3.23453","-4.4796","8.90947","-3.89444","-0.0799866","-2.98187","-18.0359","-24.1898","-35.6644","1"
"-1.47327","-0.97406","10.646","-4.12979","0.953384","-3.53058","-4.89349","7.16858","-46.3547","0"
"-0.684219","-0.747375","10.344","-0.547287","0.398209","-0.386063","-3.60413","21.0281","-42.7536","0"
"-1.54688","-0.877258","11.6002","0.294113","0.14238","-0.363113","-3.01514","20.1523","-42.0944","1"
"-1.55618","-0.362244","11.8739","0.189926","-0.247147","0.490616","-3.76282","18.9865","-43.2632","1"
"-3.84001","0.803375","14.5343","2.05392","-0.728348","1.83533","-3.31268","10.231","-45.8954","1"
"10.0057","-8.21701","2.12343","5.73602","-1.01181","3.02098","-18.2068","-21.3913","-34.9625","1"
"3.49092","4.466","13.8981","-0.923965","0.143784","0.457916","-25.1816","-30.7571","-25.296","1"
"3.58728","1.69597","12.685","1.6414","0.341461","0.40065","-26.5396","-27.9861","-26.4908","1"
"2.72083","-0.635864","9.97459","-1.22453","0.639893","-1.45744","-19.4717","-32.8171","-25.8987","1"
"-2.53764","1.30875","13.5184","-4.16774","1.20636","-3.64015","-0.227356","-9.0683","-44.0277","0"
"-2.63446","0.897736","14.6701","-1.66026","0.285919","-1.64806","4.33197","14.5813","-44.2093","0"
"-1.38158","-0.130676","11.1082","0.07547","0.158051","-0.483505","1.81427","19.2368","-42.3492","0"
"-4.13843","0.692764","12.5848","0.177734","-0.118607","-0.0087738","1.85547","18.1137","-43.0084","1"
"-5.02699","1.05881","13.1446","1.30241","-0.804001","1.18227","0.0152588","13.3774","-44.7433","1"
"9.1526","-6.36069","-8.74588","4.90053","-1.4175","3.7466","-12.8769","-12.7655","-41.1789","1"
"10.7911","2.68784","10.6079","1.55008","0.798721","1.32256","-22.9446","-31.5582","-25.7996","1"
"5.89839","3.28981","12.41","-1.67754","-1.09045","-0.234146","-27.0798","-22.0322","-31.1371","1"
"6.05396","0.698212","9.67186","2.23398","1.0179","0.193893","-25.9811","-28.6133","-25.2213","1"
"11.5896","-2.22729","-5.98315","-2.82602","0.158203","-2.62505","-17.8574","-25.9064","-32.457","1"
"-3.65572","-0.795181","12.0316","-3.24603","0.349579","-3.6597","-1.11694","-2.92358","-45.3384","1"
"-1.51396","1.25291","9.75682","-1.34457","0.100327","-1.40884","-5.74646","14.9887","-43.6584","0"
"-0.908997","0.0398407","9.69687","0.251312","0.538651","0.0881653","-0.837708","15.7181","-43.3395","0"
"-2.03783","0.209473","8.53662","0.236374","0.1698","0.388626","1.81885","13.4644","-44.5282","1"
"-4.47261","4.35101","12.4142","0.227234","-0.197113","0.634827","1.84479","12.056","-44.8273","1"
"0.774048","-4.36597","13.968","3.34979","-1.70705","3.11798","-4.85229","-3.80402","-44.3619","1"
"13.3867","-3.6395","-11.1851","3.44772","0.342865","2.13693","-21.0312","-30.5344","-26.445","1"
"10.8295","-3.94646","-6.43161","-2.43761","-1.38957","0.0428467","-26.7624","-22.76","-30.1331","1"
"10.4833","-1.10745","4.66138","3.0031","1.40791","0.12442","-26.0635","-27.8015","-24.6918","1"
"9.49587","-1.39842","5.87505","-2.26758","0.014389","-2.08937","-16.6244","-30.1346","-28.5843","1"
"-3.46684","1.54958","15.4106","-3.71245","0.781418","-3.92836","-0.0900269","-3.60718","-44.4519","0"
"-2.14685","0.153946","9.04393","-1.25151","0.484787","-1.98474","1.15814","14.9643","-43.1976","0"
"-1.49892","1.43683","9.25304","0.212448","0.182953","-0.323151","1.05743","15.8844","-42.6346","1"
"-5.1391","3.45497","12.9066","0.669952","-0.428177","0.809998","-0.1297","12.059","-44.2383","1"
"-4.13109","4.32224","13.0722","1.12091","-0.203827","1.4581","-0.764465","4.93774","-45.2667","1"
"12.8506","-4.11348","-12.096","4.39934","-1.40508","4.13304","-12.6495","-16.4734","-38.0554","1"
"5.26578","8.68919","16.9472","0.611481","0.664749","0.619095","-22.8607","-30.455","-24.9557","1"
"13.5123","-0.115875","-7.15627","-0.509216","-0.767563","-0.282318","-24.5422","-24.733","-29.3442","1"
"13.2611","-1.49348","-10.1617","0.863388","1.69675","-0.341126","-18.2129","-31.076","-25.882","1"
"-3.40924","-3.16565","11.5112","-3.53871","-0.0551147","-4.13034","-1.69067","-16.3651","-40.1901","1"
"-7.41434","-4.35701","10.3229","-2.32213","-0.222412","-2.65588","1.38855","9.43756","-44.0445","0"
"-0.654587","-0.331711","9.22066","-0.578125","-0.0422974","-1.00439","-8.3725","18.1381","-40.2328","0"
"-0.774384","-0.352219","9.5527","0.442062","0.768768","0.152878","-3.22571","16.1469","-41.9083","0"
"-2.63327","0.660126","11.0036","0.199493","-0.20314","0.512695","-0.682068","14.0823","-43.1976","1"
"-3.28575","0.928116","14.0943","1.15558","-0.605682","1.48393","-1.49231","9.2453","-44.2047","1"
"-2.01031","-0.356308","14.4083","5.55025","-1.38844","3.42627","-15.9042","-16.0645","-36.4075","1"
"9.52177","4.85451","8.61597","0.321609","0.528015","0.441696","-21.5454","-31.9962","-23.6389","1"
"3.37076","0.243225","8.58759","-0.139206","-0.199341","-0.239761","-23.3429","-25.8148","-28.7933","1"
"9.55951","-4.35695","-2.07695","0.764526","1.36154","-0.337128","-16.2766","-34.0942","-24.2416","1"
"-7.49396","-3.40887","17.6704","-4.21794","0.143204","-3.79004","-2.6947","-16.5878","-40.2298","1"
"-1.87239","-1.18652","9.29304","-2.97505","0.401062","-3.18008","0.244141","13.9359","-42.3187","0"
"-2.18156","-0.766129","9.29309","0.29335","0.250351","0.133545","0.263977","19.3024","-40.4007","0"
"-2.70726","0.708771","9.86375","0.385406","0.215439","0.0506744","2.85645","16.7786","-41.4749","1"
"-5.89146","-1.006","13.9583","0.197494","-0.108566","0.295853","2.67029","15.6128","-42.2394","1"
"13.6244","-2.80887","3.43713","2.0728","-0.90361","2.43488","1.61438","5.65796","-44.4687","1"
"14.4626","-2.78448","-1.00281","5.42992","-0.138931","3.13696","-13.5422","-26.535","-31.3232","1"
"4.23151","3.8269","9.37466","-1.83917","-1.10472","0.0637512","-18.1458","-32.1609","-25.5463","1"
"12.1959","-1.30173","-6.213","1.47153","0.503754","0.474716","-22.7463","-27.8061","-26.9501","1"
"4.42953","-4.40832","5.63942","-1.12869","0.639328","-1.4754","-13.6078","-32.5027","-27.7756","1"
"-7.26054","-3.11465","13.317","-4.71571","0.849258","-4.52502","3.66669","-5.44891","-42.9092","1"
"-6.22707","-2.20757","13.2792","-0.870544","0.442261","-1.5247","4.27856","18.5074","-41.0904","0"
"-2.00673","-0.862701","10.3439","0.374908","0.174011","-0.118622","4.13513","18.3319","-40.8722","0"
"-4.00369","0.802155","12.1136","0.0529785","-0.230453","0.116699","3.05481","16.9495","-43.0405","1"
"-1.40474","-2.49634","11.5358","0.91951","-0.635223","1.09587","2.53448","13.356","-43.5791","1"
"1.01942","-1.97083","10.9364","4.46895","-2.28172","3.49358","-7.90405","-9.3338","-41.2811","1"
"8.51239","7.13608","12.2551","2.67328","1.0408","0.995255","-21.1899","-33.8852","-22.2107","1"
"8.65083","8.58659","14.5136","-1.62083","-0.913605","-0.444275","-22.5464","-28.2013","-27.8412","1"
"7.5771","0.900131","2.92754","1.81108","1.98582","-0.0982666","-16.8182","-34.0958","-24.4904","1"
"0.588211","-1.8744","10.0466","-2.86314","-0.11882","-2.94476","-3.30658","-27.2812","-34.9091","1"
"-1.26135","-2.07449","8.94482","-3.21132","-0.64325","-3.81566","3.71094","3.6377","-44.7128","1"
"-0.641724","0.58429","9.07748","-0.563797","0.444672","-0.719238","-2.71912","15.802","-42.421","0"
"-0.624954","0.374847","9.22348","0.299942","0.378098","-0.0400696","-0.424194","14.3997","-43.0115","0"
"-1.573","0.909134","10.5274","0.129517","-0.146454","0.170197","-0.0640869","13.4766","-43.4662","1"
"-1.77786","0.820694","10.9641","0.883514","-0.407837","0.885773","-0.526428","9.8938","-44.6716","1"
"6.38342","-3.47777","9.27956","3.80586","-1.66394","3.35536","-8.00018","-9.18121","-41.9601","1"
"8.54639","-2.39844","-11.7037","4.16145","0.347916","1.49594","-26.6449","-32.6691","-18.3517","1"
"9.42331","9.2208","14.5756","-1.94406","-0.317047","0.0466461","-27.1072","-29.6722","-22.5357","1"
"12.8667","-2.23294","-11.7293","1.94841","1.42773","-0.0495453","-25.0931","-31.6711","-22.0779","1"
"8.24098","1.16278","7.07991","-2.65779","-0.342667","-2.27327","-15.1505","-30.6961","-29.6509","1"
"-4.38753","-0.480698","12.3635","-3.55013","1.68101","-4.32771","6.05011","-4.30298","-43.7302","1"
"-1.84436","-0.299759","9.26428","-0.974609","-0.440781","-1.56552","4.13971","15.6845","-42.3126","0"
"-2.38553","0.131958","11.4569","0.20639","0.268814","-0.207275","2.27661","16.3956","-42.4759","1"
"-5.62506","1.08835","14.4662","0.153076","-0.237335","0.131561","2.40173","14.7919","-42.6926","1"
"2.8018","-8.45847","12.1637","0.96965","0.0290985","1.33286","2.76489","10.2417","-44.1666","1"
"12.0027","0.365204","-7.04138","5.01993","-1.1674","4.81535","-5.52826","-16.1026","-39.5782","1"
"7.29486","7.80119","14.804","-0.337402","0.130676","0.164703","-19.2276","-32.1625","-26.8219","1"
"12.6757","-3.5387","-15.9945","-0.420715","-0.953094","0.361542","-23.3643","-23.8266","-31.6238","1"
"8.79982","-0.635071","5.2834","1.9917","1.02951","0.327988","-21.225","-32.991","-23.3627","1"
"-0.979782","-3.29832","8.45183","-3.94719","0.189453","-2.58756","-14.4043","-22.7341","-35.643","1"
"-5.64314","-1.56207","13.7904","-3.2189","1.33545","-3.72849","3.31421","6.46668","-44.7556","0"
"-1.86694","-0.877136","9.47057","-0.280746","-0.211884","-0.975586","0.100708","17.514","-42.4164","0"
"-2.47459","-0.223724","12.5311","0.186035","0.126312","-0.167511","-1.25427","17.2958","-42.0975","1"
"-5.69687","0.496368","13.9447","0.42009","-0.157486","0.590561","-1.17493","15.4724","-43.3167","1"
"-5.51128","-0.403976","14.4553","3.43045","-1.74777","3.21878","-6.69708","-0.221252","-44.3634","1"
"10.3305","0.536224","-9.07733","4.60773","0.282623","2.53618","-23.5901","-28.923","-27.594","1"
"8.20754","6.72108","19.2426","-2.30624","-0.712173","-0.283035","-25.5234","-25.5936","-30.2032","1"
"14.9711","-1.28728","-9.62457","2.25673","1.55594","0.318375","-25.1572","-27.5024","-28.3508","1"
"-0.356125","-5.78246","6.70094","-2.88907","0.104645","-2.69577","-16.2354","-24.8444","-35.2112","1"
"-1.12834","2.28975","10.4095","-3.14752","0.489655","-3.59016","-0.0534058","1.76849","-46.6598","1"
"-2.32796","-0.695801","10.6641","-1.0323","0.570679","-1.62317","-1.08185","16.0156","-44.7937","0"
"-2.18822","-0.668289","10.4296","0.0362549","0.169983","-0.374023","-2.48413","18.2251","-43.6645","1"
"-4.84673","0.29303","11.8512","0.284561","-0.11821","0.221405","-3.2074","16.7618","-44.4534","1"
"9.61182","-7.75574","-13.3382","2.49268","-1.45746","2.59059","-5.87769","6.11114","-46.4249","1"
"8.44728","4.07628","9.00188","5.80669","-0.711319","3.15338","-25.9628","-23.4344","-30.9845","1"
"5.81493","3.64241","11.5725","-2.11382","-0.786179","-0.00201416","-29.921","-26.2161","-27.0874","1"
"7.75409","-5.41536","-4.18452","1.3324","0.943573","0.312424","-31.9153","-20.7108","-29.631","1"
"3.68889","-2.3717","5.89781","-0.385162","0.703735","-1.12407","-21.1685","-29.0726","-30.8472","1"
"-2.05518","-6.29413","8.28682","-4.53575","1.35236","-4.2789","-5.19714","-5.76782","-45.5139","0"
"-2.2811","-1.27571","10.2531","-1.63371","0.446136","-1.95641","-1.14441","18.6356","-43.2587","0"
"-2.19023","-1.48741","10.1286","0.174118","0.217178","-0.387085","-2.73132","20.7214","-41.9586","0"
"-2.64926","-1.7375","11.0017","0.257462","-0.138763","0.26355","-2.79388","18.8965","-42.012","1"
"6.20898","-9.37923","6.4146","1.92191","-0.844559","1.79727","-3.59802","11.1404","-44.8563","1"
"12.5351","-2.27211","-10.2659","6.19402","-1.32115","4.02255","-19.8746","-20.2545","-34.3796","1"
"7.60806","7.8597","17.1947","-0.657501","-0.156403","0.191605","-27.327","-30.9967","-23.0576","1"
"15.1161","-2.46248","-9.63388","0.771729","0.564178","0.257614","-30.0934","-25.5493","-26.3245","1"
"1.18721","-6.40016","6.11375","-0.801682","0.928833","-1.35661","-20.6284","-30.3482","-28.6163","1"
"0.514999","-5.37","8.86005","-3.44736","0.685272","-5.44974","0.935364","-9.95483","-43.7927","1"
"-7.78346","-0.956986","13.9149","-1.597","0.00294495","-2.09549","1.13525","13.5162","-44.0475","0"
"-2.30652","-1.07036","9.54037","-0.227478","0.0848084","-0.476837","-1.85394","18.5242","-41.774","0"
"-6.65807","-1.10675","15.5229","0.165924","-0.29007","0.255264","-2.69318","18.1076","-42.4301","1"
"2.1487","-4.0874","8.36949","2.7263","-1.24359","2.71433","-5.31464","7.68433","-45.8679","1"
"9.79344","-7.93283","-15.7052","5.78215","-0.392242","3.5217","-20.7275","-24.1241","-32.959","1"
"5.41267","8.15536","14.9662","-1.18376","-0.151947","0.165421","-24.9512","-30.5008","-26.442","1"
"13.7378","-3.65929","-20.8468","1.71286","0.621536","0.238235","-26.8936","-29.5685","-25.8591","1"
"7.68216","-3.15985","6.95848","-1.8062","0.117599","-1.84644","-18.4967","-31.5887","-28.9047","1"
"-5.31924","-4.19775","15.5696","-4.49777","0.802399","-4.31053","-2.6474","-7.57141","-45.0012","1"
"-1.68509","-0.340363","9.35645","-1.40848","0.126724","-1.61131","-1.84479","15.6967","-44.0063","0"
"-1.45473","0.528748","10.8274","0.0742493","0.416397","-0.179337","-0.999451","18.0435","-43.0557","1"
"-6.05185","-1.35889","14.822","0.129684","-0.220413","0.156509","-0.662231","17.1768","-43.4219","1"
"-5.23512","-2.36763","14.3853","1.77048","-1.64227","2.05963","-4.57001","11.1572","-45.4453","1"
"9.81278","-8.14531","2.45648","6.36061","-1.49139","3.23711","-23.7518","-17.9977","-34.8892","1"
"4.74809","1.82651","11.6748","-0.643753","0.364609","0.191376","-27.33","-30.0827","-24.4324","1"
"5.72908","0.0683899","7.90164","1.05234","0.0447998","0.274155","-29.6387","-24.6307","-27.9404","1"
"5.03648","-3.4111","7.3593","-1.15784","0.712555","-1.48112","-21.9193","-29.8538","-28.0991","1"
"0.204666","-7.07936","4.90604","-4.03455","0.722366","-5.10129","-1.01318","-7.82623","-44.4962","0"
"-1.03856","-0.223892","9.81331","-1.53583","0.224808","-1.36833","0.976562","14.8788","-44.1544","0"
"-2.90071","0.115921","12.3714","0.0573273","0.264252","-0.298782","0.196838","17.9077","-42.572","1"
"-6.93196","0.199142","14.8096","0.368027","-0.0445404","0.164124","0.12207","16.33","-43.6234","1"
"4.29254","-8.69341","12.1341","2.10619","-1.12291","2.29622","-1.97144","6.41632","-45.8755","1"
"6.845","-10.3821","7.99361","6.16199","-1.50414","3.3941","-23.4283","-23.6633","-29.7394","1"
"8.15952","7.94255","19.1346","-1.65422","0.199463","-0.11937","-26.6586","-29.7134","-24.1241","1"
"14.3926","-4.27829","-8.29735","1.62106","1.00635","0.361801","-25.8224","-26.1139","-28.7689","1"
"7.73273","-0.453491","9.39162","-1.9547","0.457397","-2.18083","-16.4169","-28.8834","-31.3049","1"
"7.2993","-1.12631","6.05748","-4.08696","0.166458","-3.87302","-2.75116","-2.3941","-45.5246","1"
"-2.0779","-0.724243","8.9539","-1.09914","0.39769","-1.11227","-4.61578","15.7516","-42.8879","0"
"-0.58815","-0.547836","9.87082","0.0281372","0.291504","-0.231674","-1.51215","16.9724","-42.6468","0"
"-6.04004","-0.00827026","15.5272","0.0127258","-0.0956879","0.040863","-1.31378","16.7068","-42.7917","1"
"1.55167","-4.40002","11.9944","2.67937","-1.54514","2.22386","-6.00891","7.38983","-44.7845","1"
"8.03403","-9.62256","-19.5504","6.05542","-0.471436","2.71838","-22.2275","-25.4288","-28.9108","1"
"7.86359","8.22792","18.5127","-1.68347","-0.317001","0.211304","-26.5503","-29.4846","-23.7213","1"
"10.3524","-3.73149","-15.3418","1.75543","0.928284","0.0181732","-27.0386","-28.5522","-24.3454","1"
"-2.54323","-2.04958","13.3078","-2.44653","0.853836","-2.49474","-14.8987","-28.7308","-31.0806","1"
"-1.132","-0.40062","15.9894","-4.07657","0.0180817","-3.99344","-0.796509","0.357056","-45.253","0"
"-1.03607","-0.945709","10.1139","-1.07321","0.21048","-0.992523","-3.48206","17.717","-42.2424","0"
"-0.757675","-0.338516","7.70015","0.191254","0.210693","-0.0480194","-1.19934","17.9626","-41.8686","1"
"-0.630859","0.938354","11.452","0.0488892","-0.0986938","0.0845032","-0.944519","17.128","-42.3584","1"
"8.30884","-6.77547","5.28503","1.9911","-0.80513","1.77913","-2.90222","10.5133","-45.0089","1"
"11.6964","1.80241","-5.15741","6.12082","-1.36015","3.62601","-19.1208","-21.5042","-33.2901","1"
"6.17596","3.41196","7.37611","-0.525421","0.0392151","0.0228729","-25.5753","-32.1518","-21.7941","1"
"5.90608","0.686523","3.48343","1.29237","0.632996","0.245529","-27.0889","-29.7699","-23.3337","1"
"8.19493","-3.67543","-0.341492","-2.34698","0.25766","-1.81796","-17.6743","-30.3925","-29.2236","1"
"-5.05058","-2.05458","15.9122","-3.93958","0.302383","-4.2467","-2.04315","-4.01154","-45.3827","0"
"-3.55377","-0.830353","15.7212","-1.43193","0.505051","-1.60213","-3.53699","15.1291","-44.0598","0"
"-2.16632","-0.913116","10.7931","0.0210876","-0.0146637","0.0113373","-3.37677","16.8671","-42.6895","0"
"-6.79291","-0.289917","15.0006","0.162476","0.0371857","0.23436","-2.67487","16.2796","-43.4082","1"
"4.10739","-4.88249","7.85266","2.45219","-0.625","2.76755","-1.64795","5.31464","-45.7153","1"
"4.65015","-5.55374","6.96858","5.56361","-1.01517","3.47929","-19.6777","-25.3296","-30.7938","1"
"6.60335","9.87238","15.6988","-1.17746","-0.383942","-0.0197754","-24.8581","-31.0547","-24.1608","1"
"10.9197","-1.03146","-6.48393","1.62155","0.851257","0.196503","-25.5112","-31.6849","-22.7371","1"
"3.14922","-3.00327","9.98091","-2.57042","0.646332","-2.42297","-16.5314","-29.8706","-30.2475","1"
"3.27097","-2.43744","8.41284","-3.83865","0.4449","-4.26706","2.23236","-1.8692","-45.7825","1"
"-2.55013","-0.636856","9.62785","-0.889328","0.194885","-1.47058","-0.224304","15.8951","-44.1605","0"
"-1.62442","-0.335281","9.12247","-0.0340118","0.172852","-0.376297","-0.692749","17.2607","-43.3853","0"
"-4.18942","-0.84082","9.85809","0.0669556","-0.0159454","-0.0223999","-1.00708","17.3309","-43.0069","1"
"-3.64429","-0.609879","14.152","1.64484","-0.624664","1.90314","-2.33459","11.1832","-45.5994","1"
"7.76659","2.6454","-0.0816803","4.92564","-0.484283","3.80388","-7.10754","-17.4194","-40.2374","1"
"8.06222","5.74258","12.5344","0.545349","0.419357","0.999741","-18.2602","-34.4101","-25.3098","1"
"8.07416","-2.52487","-2.8943","0.382828","-0.599289","0.751434","-24.8657","-28.8177","-27.1729","1"
"2.19736","0.47998","6.54004","-0.661606","0.98114","-1.41762","-19.2093","-32.4188","-26.648","1"
"-8.83531","-3.61618","14.2195","-3.88609","1.03075","-4.18604","1.27563","-11.4944","-43.9835","1"
"-1.87119","-0.258682","10.974","-1.62236","0.164703","-1.72197","3.65906","13.6291","-45.1202","0"
"-1.58196","-0.748642","10.1621","-0.210083","0.136887","-0.466293","2.76337","18.9117","-43.0618","0"
"-2.40324","-1.10817","10.6549","0.190643","-0.041626","-0.0717316","2.31171","18.4891","-42.8802","1"
"4.33814","-6.8028","9.63545","1.3179","-0.850357","1.24185","-0.40741","13.3484","-45.5338","1"
"10.282","-5.70927","-14.2626","5.97923","-2.02393","3.90398","-15.9088","-15.8554","-37.9181","1"
"11.4443","11.1521","20.1039","0.598465","0.122833","0.597504","-27.8091","-32.0877","-20.6238","1"
"12.0557","-4.18021","-12.5067","-0.0801544","0.024826","0.0666046","-30.6824","-26.4755","-24.6841","1"
"7.16757","-2.96306","5.66489","-0.326996","1.13768","-1.22682","-22.2626","-31.723","-26.0818","1"
"4.06989","-4.87645","3.64244","-4.16978","1.27039","-4.20084","-0.0244141","-10.9985","-43.8339","1"
"-1.95058","0.642014","9.08151","-1.94223","0.236221","-2.47377","1.9104","15.8264","-44.5999","0"
"-1.90932","0.976715","7.76878","0.214584","0.0894928","-0.180801","-0.12207","18.9041","-43.0237","0"
"-5.17862","0.385223","13.5868","0.109879","-0.166443","0.0574646","-0.4776","17.8314","-43.7439","1"
"2.91098","-4.49448","13.4584","1.94696","-1.22183","2.20174","-3.29895","10.64","-46.0709","1"
"8.83264","-8.44112","-16.6948","6.14558","-1.23619","3.3338","-20.607","-21.2158","-34.5627","1"
"9.79274","9.33487","16.7733","-1.0817","-0.337494","0.403397","-27.4933","-29.9316","-25.2396","1"
"15.4396","-4.74077","-16.4016","1.47858","0.878448","0.152679","-28.4103","-27.9999","-26.6495","1"
"4.23233","-5.04903","6.11076","-2.32431","0.826553","-2.82002","-16.9266","-28.4668","-32.724","1"
"-5.08046","-1.27959","14.4709","-3.75459","0.114975","-4.22124","1.26953","-0.157166","-46.7484","1"
"-3.19601","-2.82178","15.5253","-1.2774","-0.0406189","-1.49152","-2.66113","17.8741","-43.7942","0"
"-0.86908","-0.610535","9.15857","0.135895","0.200302","-0.144012","-5.22308","19.6762","-42.8375","0"
"-0.405472","1.29181","8.08368","0.418732","0.0937653","0.324188","-4.67224","17.7872","-43.8889","1"
"-2.83331","-0.179214","15.0518","0.280167","-0.0806122","0.497681","-2.07977","14.9231","-45.6284","1"
"-0.918915","-0.191849","13.0795","1.93202","-1.16069","2.0354","-4.93622","7.91016","-46.7209","1"
"5.73585","0.532715","-2.89662","5.9501","-1.8073","2.748","-24.9634","-22.8043","-30.1315","1"
"6.11183","2.92924","6.87018","-0.403824","0.219009","0.124466","-29.0283","-32.5897","-19.2657","1"
"6.5452","-1.71295","1.98801","1.09254","0.658539","-0.111008","-28.1998","-31.1615","-22.0718","1"
"7.36002","-0.867615","4.98944","-2.35139","1.03256","-2.45807","-15.2527","-31.3278","-29.3091","1"
"-7.65141","-3.85098","14.4284","-4.13272","0.663086","-4.30008","2.10419","-0.993347","-45.1447","0"
"-1.86407","-1.23204","9.35191","-1.08778","-0.0103912","-1.54826","-2.09656","19.6899","-41.5344","0"
"-0.95813","-0.58548","10.0812","0.317856","0.0660858","0.0427856","-2.84729","19.3207","-41.6382","0"
"-4.36932","0.982605","15.2833","0.255569","0.0575256","0.151764","-2.00348","17.395","-42.5842","1"
"-2.72389","-5.17975","15.7167","1.16792","-0.510635","1.24023","-2.6947","13.0478","-44.8364","1"
"7.38408","-9.23137","-17.6653","6.85402","-2.12697","3.91052","-16.4322","-18.0237","-34.993","1"
"9.61899","-5.90938","-14.5586","0.551422","0.454315","0.27095","-28.8483","-35.4523","-13.6749","1"
"11.6821","-5.48776","-14.2007","0.667114","0.355652","0.402008","-31.2103","-31.3477","-18.1824","1"
"4.03325","-3.08916","5.14107","-1.54408","0.804123","-1.44399","-23.7732","-33.8486","-21.7224","1"
"3.2141","-2.85324","5.09006","-4.7243","1.9516","-4.43761","0.088501","-8.59528","-43.2236","1"
"-2.88397","-3.11571","9.49049","-1.76147","0.306366","-1.84067","5.24139","18.0069","-41.8716","0"
"-4.36748","-2.81819","12.1319","0.0681","-0.250839","-0.908173","-1.88293","22.8851","-38.9877","0"
"-2.9939","-1.6438","10.3371","0.640076","-0.00314331","0.360794","-2.29645","19.8242","-40.9882","1"
"-7.28155","-2.34525","14.9354","1.45728","-0.903122","1.03879","-4.11224","13.0142","-44.4473","1"
"9.16161","-7.30582","-1.8965","6.40991","-2.14442","3.59248","-22.0901","-15.7532","-35.1761","1"
"6.75574","1.98065","0.358734","0.985092","0.476181","0.49736","-31.1447","-31.0059","-18.66","1"
"7.19835","-1.60277","3.93039","0.679932","0.261566","0.132767","-32.5958","-28.1265","-20.726","1"
"-4.23051","-4.02135","15.9143","-1.99846","0.916733","-1.8801","-23.3154","-30.0873","-26.7578","1"
"-4.57004","-0.902435","9.97519","-4.09903","1.15804","-4.3141","-1.13068","-5.34973","-44.9844","0"
"-1.85068","-1.08304","9.1831","-1.31587","0.52153","-1.54683","1.18408","16.1026","-44.8868","0"
"-1.10797","-0.426544","9.71613","0.208847","-0.248856","-0.319717","-1.79138","18.1137","-43.7424","0"
"-1.9133","-1.08582","10.3038","0.171188","-0.12558","0.0272369","-3.30963","16.7328","-44.4595","1"
"-5.04013","1.38997","15.4032","1.68491","-0.826935","1.73578","-5.59998","10.5347","-46.5714","1"
"6.42801","-8.02919","5.77293","6.07051","-1.45494","3.60979","-19.7632","-19.046","-36.4456","1"
"8.5446","2.31361","7.28282","-0.36615","-0.200989","0.557541","-29.9408","-30.1147","-22.9004","1"
"10.3279","1.31425","1.94951","1.43936","0.628723","-0.231461","-30.8472","-29.2969","-22.9218","1"
"7.83569","-3.08012","-2.05821","-2.83746","0.525269","-1.68417","-22.3938","-28.8513","-29.8843","1"
"-8.1483","-1.31877","14.1796","-4.72057","0.611587","-3.99126","-7.3349","-0.444031","-46.4767","1"
"-0.899734","-0.506485","9.98868","-0.887909","0.647736","-0.899918","-5.91431","17.6346","-43.7439","0"
"-0.209244","-0.057724","10.0376","0.135269","0.258575","0.190292","-2.95258","17.3172","-43.8034","0"
"-0.509705","-0.324188","10.4522","0.17688","-0.000747681","0.361557","-1.24512","16.2979","-44.1833","1"
"-3.5731","1.96906","15.6211","0.66597","-0.410812","0.809357","-1.49841","13.5498","-45.9","1"
"8.79442","-7.28473","-3.29021","4.32495","-1.95873","3.11945","-8.95691","-6.26068","-44.4916","1"
"9.29269","-6.25066","-9.20201","3.30434","0.105728","1.44014","-25.8194","-33.5129","-21.0205","1"
"6.93854","1.68022","-2.15836","-1.44313","-0.498367","-0.0908661","-27.8732","-29.0726","-25.4486","1"
"9.03499","-0.934998","1.02193","0.94632","0.989273","-0.409775","-24.6384","-33.5495","-22.5906","1"
"-0.243362","-4.93797","8.2335","-4.48918","1.00575","-3.08359","-11.998","-19.7601","-39.1632","1"
"-5.38181","-2.70012","12.2655","-3.21687","0.900742","-2.96161","0.541687","12.4725","-45.1233","0"
"-1.22453","-1.22881","10.6976","-0.508591","-0.394791","-0.58847","-4.44489","22.6547","-40.3931","0"
"-0.808121","-2.28262","9.85959","0.136993","0.155655","0.174484","-4.21448","22.3633","-40.3107","0"
"-4.54835","-1.47977","14.8323","0.372238","-0.188507","0.482239","-2.47498","20.7489","-41.8503","1"
"-1.89888","-1.90665","12.8701","2.60753","-0.725723","2.29135","-1.17798","9.48944","-45.9396","1"
"8.31683","7.59195","7.7934","5.75833","-1.2307","2.82509","-19.014","-24.0189","-33.0658","1"
"13.4311","3.22018","-7.66092","-1.23979","-0.198318","0.0271301","-23.9883","-31.5048","-25.2838","1"
"14.2379","-0.193451","-20.8707","1.38629","0.988159","0.0384827","-22.4091","-31.2866","-26.59","1"
"-5.13536","-3.73148","16.6741","-2.9411","0.617172","-2.6412","-11.1008","-27.4414","-34.5123","1"
"-6.10222","-0.286591","14.1185","-3.37955","0.392761","-2.95642","1.34583","1.42212","-46.5958","0"
"-1.08714","-0.978607","9.75928","-1.15355","0.14415","-1.11943","0.689697","18.4708","-42.4561","0"
"-0.776092","-0.810303","9.67017","0.126816","0.0704498","0.0434418","0.950623","19.5435","-41.6077","0"
"-4.33093","3.0649","16.8167","0.153778","0.0562439","0.217163","1.78375","18.3441","-42.1875","1"
"-5.26604","3.18185","16.4009","1.11971","-0.148209","1.2686","3.25012","13.4857","-44.5007","1"
"-2.17743","-4.18405","12.2476","4.49055","-2.69542","3.78326","-10.1349","-11.2244","-41.0385","1"
"6.23456","7.01312","10.6889","1.54268","0.606049","0.645325","-23.8709","-31.1356","-24.8917","1"
"14.2847","0.235245","-14.1623","-0.615265","-0.720322","-0.202713","-25.0473","-26.6693","-28.5675","1"
"3.68385","-2.45735","3.13594","0.738632","1.00935","-0.406555","-21.0632","-32.4875","-25.2029","1"
"1.77484","-2.92488","3.90346","-3.35484","0.976196","-3.32248","-4.65088","-20.0134","-39.6667","1"
"-4.85989","1.20229","14.0847","-2.41695","0.0547485","-2.55875","5.2124","6.28204","-45.6238","0"
"-1.6196","-0.471649","9.36844","-0.776352","0.0330353","-0.547104","2.74658","18.1549","-42.2089","0"
"-2.30147","-1.12486","9.39659","0.112183","0.00224304","0.0986481","2.76337","18.9224","-41.4642","0"
"-0.838043","-0.81311","9.48747","0.214554","-0.10994","0.326675","3.05786","17.2821","-42.1982","1"
"-3.04422","2.16864","14.4596","1.68983","-0.799576","1.68167","2.24915","9.66034","-44.6899","1"
"8.11487","-6.19647","-10.9937","5.42828","-2.31248","2.72824","-19.31","-19.5053","-33.7006","1"
"7.98988","5.51599","7.96056","-0.529144","0.297134","-0.19548","-23.4451","-31.4194","-23.8281","1"
"11.3063","1.7769","-1.52222","0.820724","0.316833","0.227707","-24.9603","-27.1225","-27.1652","1"
"3.6619","-4.81868","5.02155","-0.971619","0.912674","-1.47568","-15.3976","-32.0099","-27.3331","1"
"-4.28899","-0.794174","10.6656","-3.832","1.39548","-3.24591","1.92413","-7.83081","-43.5471","0"
"-2.47978","1.85194","12.2594","-1.45047","0.103287","-1.51509","7.7301","14.9765","-42.4667","0"
"-2.11763","-0.869003","10.6871","-0.103088","-0.0226135","-0.357925","5.22614","19.2215","-40.6403","0"
"-1.91241","-0.400024","11.9562","0.177994","0.00311279","0.122406","4.83246","18.7057","-41.0873","1"
"2.22623","-4.69394","9.02341","1.42639","-0.854279","1.34985","2.6947","12.7197","-43.8171","1"
"12.652","0.190933","-10.3364","4.99852","-1.7966","3.32315","-9.95789","-16.153","-38.3774","1"
"9.87236","0.469498","-7.32579","0.616409","0.323807","0.481934","-21.7041","-33.8821","-21.8002","1"
"5.24661","9.62532","17.4017","0.12352","0.0787659","0.151825","-23.1506","-28.1586","-27.5848","1"
"1.8589","-3.10922","9.40093","-0.925262","0.387421","-1.16191","-16.5451","-31.9717","-27.0157","1"
"-4.92305","1.45499","19.3861","-3.8663","0.906662","-3.25322","-2.57568","-9.5108","-43.3456","1"
"-0.434479","0.623215","9.90642","-1.69574","0.630783","-1.58821","1.67999","13.0585","-43.9239","0"
"-0.863419","-0.70105","9.27638","-0.194916","-0.10376","-0.24057","2.11029","18.3884","-42.0685","0"
"-3.43987","2.12575","14.7403","0.193619","0.0555878","0.140182","2.72217","17.3279","-41.8976","1"
"-3.09094","-2.70573","9.94664","1.12143","-0.49968","1.17412","1.39008","12.7304","-43.9377","1"
"-1.3521","-2.95126","9.01187","4.52567","-2.31104","3.22491","-10.3836","-12.6739","-39.4394","1"
"7.24028","8.0089","12.2044","1.62927","0.705765","0.342896","-22.5281","-32.7988","-22.1161","1"
"10.1304","0.269638","-5.13014","-0.401764","-0.332733","0.113907","-23.584","-27.5558","-27.5696","1"
"4.84729","-3.25421","8.04819","-0.00675964","1.05302","-1.04131","-16.9739","-32.7393","-26.7273","1"
"-2.36243","0.391495","14.0748","-4.02388","0.95018","-3.22171","0.0152588","-11.6577","-42.0547","1"
"-1.51973","1.1037","13.2917","-1.96362","0.181122","-1.86104","4.32892","13.887","-43.248","0"
"-0.849106","-0.781204","10.1513","-0.252869","0.193848","-0.353516","3.22266","20.3796","-40.4617","0"
"-3.49767","-0.477036","12.4582","0.296326","0.046402","0.248993","4.23431","19.0323","-41.0294","1"
"-4.45587","2.82588","11.48","1.56664","-0.133148","1.20219","5.03693","11.4838","-44.2169","1"
"5.21257","-4.55572","7.56897","4.01469","-1.88948","3.61885","-4.75769","-14.4394","-40.1504","1"
"6.30067","6.8642","15.1113","1.75864","0.302399","0.926636","-22.2107","-33.6975","-20.8557","1"
"10.3798","-3.92702","-8.19257","-1.06909","-0.619354","0.214264","-25.3479","-26.4435","-27.0569","1"
"8.35725","-4.99597","-4.98421","0.517731","1.09261","-1.01385","-18.0374","-32.7866","-24.4247","1"
"-0.198654","-4.94826","9.03571","-4.5061","0.887497","-3.34764","-4.44336","-12.5183","-41.0934","1"
"-1.91434","-1.49263","11.7134","-2.14337","0.548187","-2.62439","2.65198","15.8783","-41.8121","0"
"-1.53938","-1.32726","11.3137","-0.311966","0.0456848","-0.729752","-1.55945","22.728","-38.5712","0"
"-4.85559","2.57823","19.4425","0.379333","0.0202179","0.193665","-1.61591","21.2769","-39.1525","1"
"2.27948","-6.0708","8.76672","1.88579","-0.617477","1.79063","-1.8692","13.4949","-43.1702","1"
"3.03494","-7.08971","9.15353","5.23764","-1.60069","3.77301","-13.2751","-16.2857","-36.9339","1"
"12.7784","-1.35938","-10.2523","0.177979","0.480865","0.152634","-21.8491","-31.6681","-23.7885","1"
"13.3679","-2.37671","-9.05833","0.665665","0.124084","0.355637","-24.7116","-26.7059","-27.0172","1"
"-0.122849","-6.87015","5.40317","-1.28693","0.911987","-1.81406","-14.4028","-30.5634","-28.5248","1"
"-5.66627","0.65271","16.6132","-3.78929","0.664215","-3.75784","3.30048","-4.05121","-43.1961","1"
"-1.16006","-1.37961","9.64038","-1.63928","-0.142502","-1.61736","0.416565","17.9291","-41.8335","0"
"-1.87631","-1.72629","9.3065","0.00489807","0.0993805","-0.392319","-2.77252","21.2921","-39.743","0"
"-3.52318","1.29224","16.5215","0.390945","0.152054","0.315552","-1.63269","19.7693","-40.538","1"
"-5.23819","-2.52272","16.3208","1.39143","-0.08255","1.24141","0.537109","13.1775","-43.3044","1"
"8.93161","-7.98523","-11.1802","5.37085","-1.98808","4.18779","-10.7956","-15.1825","-37.6511","1"
"7.51686","10.0039","16.4073","-0.0726776","0.28157","0.110092","-23.378","-32.045","-24.4171","1"
"10.8755","0.214691","-3.75031","0.617035","0.349518","0.142288","-23.7915","-27.5192","-29.0054","1"
"6.34157","-3.07062","3.33849","-0.768112","0.795441","-1.46648","-14.3234","-32.4097","-28.1662","1"
"-5.70914","-3.26863","20.6041","-4.0155","0.182114","-4.13412","2.73285","-6.50177","-43.9804","1"
"-2.95763","-1.60817","13.8","-1.98714","0.111282","-1.70699","-0.930786","18.6264","-42.0334","0"
"-0.684616","-1.25229","9.37288","0.0752563","0.15126","-0.204254","-2.6535","22.2778","-39.151","0"
"-2.21776","-1.36377","11.7851","0.376587","0.0516052","0.243378","-1.27258","20.6512","-39.9857","1"
"5.09003","-6.5339","7.92044","1.48192","-0.179199","1.32111","0.0839233","13.855","-43.2251","1"
"9.63826","-0.229355","-6.26915","4.89394","-1.55725","4.12518","-8.15277","-14.7263","-39.0869","1"
"5.65744","6.10458","13.3428","0.38089","0.330673","0.603638","-20.5597","-32.6218","-24.9283","1"
"12.946","-1.77042","-5.56252","-0.139771","-0.0771637","0.0763245","-23.7762","-25.3387","-30.8609","1"
"-1.85971","-5.85808","12.869","0.00759888","0.988953","-1.1429","-15.5746","-32.0496","-28.3325","1"
"-2.69485","-5.11044","14.4282","-4.29532","0.119247","-3.37947","-2.15759","-8.18939","-43.6569","0"
"-2.53615","-0.000915527","12.2063","-2.43723","0.273148","-1.80817","-1.75934","18.3701","-41.5863","0"
"-0.669968","-2.06841","10.0412","0.11142","0.520905","-0.266205","-2.02332","22.6135","-38.8977","0"
"-1.70511","-1.38657","10.1332","0.278305","0.0678406","0.0778809","-0.701904","21.2692","-39.8224","1"
"-4.3606","-0.871796","16.5785","0.217911","-0.290909","0.177399","-1.19782","19.8776","-41.1392","1"
"-4.40498","-2.41788","16.482","4.22208","-1.86102","2.70271","-6.80084","2.95258","-43.8065","1"
"5.10242","2.6447","3.59845","4.49773","-0.173416","1.81554","-23.494","-31.4117","-23.8159","1"
"9.16241","3.47639","6.2162","-1.5722","-0.245895","-0.312683","-24.2432","-29.8538","-26.3626","1"
"4.77846","-5.01094","-0.435104","1.64075","0.755737","-0.009552","-23.4131","-33.7723","-22.4701","1"
"4.41545","-4.44417","3.2771","-4.45657","0.714584","-2.88506","-10.4324","-22.084","-37.0895","1"
"-5.02263","-3.77121","15.9336","-3.29625","1.11168","-3.15517","1.66626","13.3316","-43.2419","0"
"-1.05817","-2.06395","9.33916","-0.531464","0.189346","-0.999557","-3.07007","23.6511","-38.913","0"
"-0.712082","-1.69929","10.2961","0.115845","-0.158646","0.217987","-3.82385","23.2101","-38.6444","0"
"-1.00557","-1.75865","9.94685","0.498383","-0.152954","0.557083","-3.01208","21.0388","-40.4984","1"
"-1.56007","-3.08934","9.42461","2.60878","-0.521606","2.2408","-0.779724","8.58612","-45.1279","1"
"9.42796","-6.85368","-12.9142","5.34883","-0.871399","3.20151","-16.4169","-24.0082","-33.6044","1"
"6.38181","7.97682","12.9252","-1.19247","-0.065628","-0.18486","-19.96","-32.0206","-27.2141","1"
"12.4877","2.19684","-1.39111","1.00745","0.550323","0.425262","-22.0322","-27.684","-30.542","1"
"-5.0918","-6.73393","12.719","-1.35338","0.345261","-1.36177","-14.0259","-30.0262","-31.7291","1"
"-3.75475","-4.63637","14.1004","-4.2919","1.01358","-3.40962","-0.970459","-2.63977","-45.34","1"
"-3.54205","-1.41525","12.3596","-2.12016","0.538086","-1.73085","0.494385","23.3795","-39.6988","0"
"-1.59232","-3.31134","9.77985","0.135437","0.108002","-0.392471","-2.50854","26.6815","-37.5855","0"
"-2.46535","-0.842072","12.5198","0.220474","0.151718","0.0414124","-1.35345","25.1877","-38.6215","1"
"-3.11726","-0.714157","15.968","0.543549","-0.241196","0.433731","-1.40686","23.0972","-41.0324","1"
"-3.11652","-1.81267","18.6298","3.70567","-2.02437","2.59097","-6.15845","7.26929","-45.1538","1"
"10.5097","10.0074","13.656","5.12732","-0.972351","1.95873","-25.4654","-28.7277","-25.7645","1"
"11.4533","13.0028","16.1989","-1.47815","-0.019455","-0.0575562","-29.0924","-28.6057","-24.9115","1"
"6.84427","-1.80405","5.6492","1.80351","1.15082","-0.205032","-25.1419","-33.046","-22.0871","1"
"5.55319","-2.22038","5.72993","-3.82426","0.443115","-2.52861","-12.6236","-25.8072","-34.8862","1"
"-4.08888","1.31621","12.3578","-3.77902","0.771179","-3.53758","-0.556946","7.40204","-45.9122","1"
"-1.64709","-1.04552","10.3972","-0.430939","0.41301","-1.0903","-2.30255","20.4269","-42.7032","0"
"-1.31706","-1.03752","10.7532","0.223709","-0.0573273","0.0554962","-2.9953","20.1675","-42.5415","0"
"-1.87788","-0.795883","11.1411","0.233673","-0.248474","0.549545","-2.81525","18.8904","-43.5822","1"
"0.053772","-5.53128","10.3692","2.50438","-0.304565","2.33693","-0.904846","7.27234","-46.022","1"
"11.7677","-5.85333","-14.5753","5.40314","-1.14493","3.38278","-16.301","-25.5569","-31.5491","1"
"12.7124","-2.34567","-12.1843","-1.36609","-0.225967","-0.0392609","-23.938","-33.0963","-22.4442","1"
"4.5421","10.8721","17.4885","1.39346","0.997375","0.276367","-23.9792","-30.7266","-25.3296","1"
"10.8029","-2.4375","-7.16379","-2.20029","0.324539","-2.05286","-14.743","-30.1712","-31.8512","1"
"2.85056","-3.10759","4.92429","-4.28261","0.6427","-3.49481","0.506592","-0.590515","-45.3033","1"
"-4.42987","-0.243805","14.4892","-1.06363","0.608078","-1.16042","0.521851","19.0552","-42.7765","0"
"-1.9568","-1.62059","9.01782","-0.110855","0.1082","-0.540192","0.58136","22.3938","-41.188","0"
"-2.26416","-0.364853","13.4645","0.213272","-0.217667","0.28891","0.787354","20.8618","-41.9754","1"
"-7.71913","-1.13969","16.8732","1.14462","-0.495483","1.10303","-0.617981","16.4795","-44.4138","1"
"10.6379","-4.48749","5.69572","5.06015","-2.52205","3.65411","-12.3489","-10.0906","-41.507","1"
"6.06313","2.82935","3.96075","1.71033","0.469376","0.397552","-25.7401","-32.4936","-22.7158","1"
"6.47217","4.13983","7.3067","-0.252655","0.277542","-0.0940094","-24.5499","-28.6758","-28.2608","1"
"7.30534","-1.34447","-0.921127","0.425613","0.434982","-0.378525","-20.1965","-34.903","-23.2819","1"
"-0.522278","-3.68303","7.47388","-4.199","1.20349","-3.10458","-6.7276","-18.2068","-40.4053","1"
"-1.37297","-1.01523","10.7685","-2.53813","0.251007","-2.79579","3.52936","13.269","-44.0231","0"
"-0.787415","-0.936874","9.36124","-0.394897","-0.147018","-0.272476","-1.14441","21.0327","-41.2155","0"
"-4.73082","1.72652","15.3083","0.393036","0.15799","0.0961914","-0.0167847","19.397","-41.7679","1"
"-2.01395","-3.77611","11.4495","0.60614","-0.185547","0.506683","-0.437927","16.5054","-43.457","1"
"9.37585","-7.24751","-16.3473","3.9296","-1.45259","3.33263","-3.96423","-3.15704","-44.4336","1"
"11.5606","-4.03825","-13.8222","3.44261","-0.000656128","1.79031","-22.1207","-32.3242","-24.2355","1"
"12.1429","-0.324234","-8.65236","-1.43723","-0.312576","-0.390808","-21.9223","-29.1428","-28.5461","1"
"6.28877","-1.29408","4.12434","1.4538","0.896225","0.0698242","-19.7739","-33.3252","-24.5575","1"
"-4.95868","-4.69302","17.7077","-3.73633","0.437256","-2.86514","-9.83276","-23.114","-37.2253","1"
"-3.76149","-1.96854","14.9602","-3.6687","0.0769653","-3.0105","-0.982666","9.26666","-44.8715","0"
"0.0191345","-1.7531","9.90495","-0.598083","0.139557","-0.756927","-5.26276","22.1359","-39.7812","0"
"0.308121","-1.68123","9.28249","0.0652618","0.277252","-0.206802","-3.7262","21.7361","-39.6271","0"
"-0.610306","-1.3795","9.99435","0.205338","0.068161","0.0574799","-3.41339","20.7779","-40.2847","0"
"-0.908737","-1.39212","10.1911","0.0928497","-0.296417","0.350052","-2.53448","19.2978","-41.5131","1"
"-0.584808","-2.26826","12.5827","1.54573","-0.308426","1.26036","-3.35693","14.0793","-42.6605","1"
"6.00708","-9.18343","-16.2806","5.75899","-1.2773","2.97012","-12.0392","-16.1133","-36.4929","1"
"7.81969","11.3678","12.5351","0.607895","0.474167","0.353027","-19.1879","-35.6033","-20.0073","1"
"11.3925","-0.979202","-9.17227","0.444092","0.129105","0.405121","-21.5256","-31.4728","-23.7686","1"
"9.53635","3.36487","7.23236","-0.300674","0.546173","-0.842194","-14.6973","-36.409","-20.9473","1"
"-6.83418","-5.3923","12.6037","-3.98572","2.20398","-4.15498","5.71289","-15.3397","-37.5824","1"
"-6.32431","-2.69945","15.243","-1.6521","-0.499115","-3.2963","12.4298","17.1753","-38.3881","0"
"-2.45395","-2.13351","9.68751","-0.0256195","-0.542343","-0.22467","1.33057","23.0652","-37.5183","0"
"-3.44714","-1.42696","10.2996","0.423447","-0.156342","0.26973","0.788879","20.9366","-38.7787","1"
"2.30766","-6.43007","8.5072","1.24734","-0.331268","1.02933","0.106812","15.3046","-41.8762","1"
"3.95084","-6.43036","6.97246","4.73335","-1.35248","3.60503","-6.02417","-10.5499","-40.1489","1"
"4.90231","11.2677","17.0959","2.45979","0.814774","1.13948","-18.8782","-36.145","-18.779","1"
"7.08514","10.8771","16.4903","-1.0134","-0.593903","0.06987","-18.6005","-31.7398","-25.1343","1"
"3.66542","-2.68333","2.24052","0.786469","0.392136","-0.588852","-16.2369","-36.3541","-20.3583","1"
"-5.81691","-2.24904","21.4196","-3.97714","0.848618","-2.3824","-8.63342","-23.3063","-34.259","1"
"-1.07684","0.231949","11.2624","-3.01987","0.803253","-3.56914","5.95551","10.6262","-42.4133","0"
"-2.10049","-0.736389","12.1258","-0.285675","-0.499084","-0.928635","0.63324","19.4962","-40.184","0"
"-1.61757","1.79179","15.6163","0.38884","-0.0396576","0.0886383","-1.92261","18.3105","-40.5823","1"
"-4.51204","-3.67358","11.5743","0.922913","-0.385406","0.839676","-3.3905","14.3738","-42.5339","1"
"11.956","-7.41766","-13.169","4.44904","-1.42738","3.79623","-7.91779","-7.20215","-41.7572","1"
"4.16943","10.5122","13.1255","2.83778","0.58696","1.14304","-21.4294","-33.1711","-22.5571","1"
"1.97809","10.2853","15.013","-0.864105","-0.453369","-0.0803375","-21.1945","-29.7119","-26.6739","1"
"5.49121","0.366821","8.40161","0.977844","1.12445","-0.433746","-16.9342","-35.1395","-22.5601","1"
"-3.11105","-1.81886","11.0194","-3.91643","0.90419","-3.10378","-1.1261","-19.6518","-38.858","1"
"-3.73846","-1.57288","14.3014","-2.45934","0.49884","-2.5175","7.73621","10.3394","-44.2429","0"
"-1.50375","-0.957184","9.31073","-0.249435","0.0652771","-0.470779","4.39911","19.2551","-41.4566","0"
"-2.89214","1.21956","15.5688","0.404236","-0.0194244","0.0974731","5.38635","17.2272","-42.3035","1"
"-4.3264","-2.84428","12.459","1.57152","-0.583069","1.25153","3.86353","10.1013","-44.8242","1"
"10.86","-4.94678","-7.76825","5.72018","-1.86263","3.59111","-13.9435","-20.8527","-34.8434","1"
"7.09775","7.71356","9.80547","0.074707","0.645111","-0.235214","-20.0714","-35.7513","-20.517","1"
"11.7917","3.87581","3.09847","0.019928","-0.0150146","0.151962","-19.1147","-30.896","-27.6077","1"
"8.99376","-1.5015","4.05751","-0.280121","0.348709","-0.843506","-15.4526","-35.3256","-24.4675","1"
"-4.12648","-2.90407","15.3631","-4.41318","0.784973","-4.08943","1.14746","-12.944","-42.3172","1"
"-1.00432","-0.604294","10.8314","-1.52446","-0.251755","-2.16689","1.85242","13.4277","-44.548","0"
"-1.01109","-0.400604","10.0615","-0.0292358","-0.00613403","-0.345123","-1.36108","17.0761","-42.9214","1"
"-2.14546","1.323","14.1957","0.356003","-0.396332","0.323547","-2.26746","15.5289","-43.7531","1"
"-2.61246","-2.03943","13.6889","2.7014","-0.853821","2.28792","-5.59998","4.37775","-45.5551","1"
"11.9228","-4.50012","-6.44189","5.15533","0.281067","2.47571","-17.1417","-27.3697","-30.8609","1"
"8.82283","0.914825","-2.41441","-1.54735","-0.457092","-0.373611","-17.3706","-31.1768","-28.5721","1"
"8.87607","2.06807","5.41086","1.66818","1.07716","0.270462","-17.2821","-32.4646","-26.8204","1"
"-1.52679","-3.39415","14.4225","-2.63013","-0.329452","-2.01718","-8.96301","-29.0512","-32.991","1"
"-1.27318","-0.490005","13.2062","-3.91161","-0.0896606","-2.99426","-2.81982","-0.367737","-45.7214","1"
"-1.36632","-0.350052","9.82021","-1.04538","1.00061","-0.589447","-2.12555","16.4871","-43.248","0"
"-1.19931","0.0748444","7.56996","0.0734863","0.124619","-0.188828","2.565","17.8436","-42.8192","1"
"-1.13599","-0.299393","12.5067","0.225845","-0.334656","0.349106","2.1286","16.2964","-43.5287","1"
"3.83664","-5.25386","9.74304","2.32913","-0.880051","2.05801","-0.814819","6.06842","-45.7886","1"
"10.1858","0.748978","-8.18951","5.69849","-0.573883","2.72659","-15.0116","-28.3051","-29.8279","1"
"5.26878","7.07358","8.00494","-1.25714","-0.293304","-0.147888","-17.3157","-34.9503","-22.9202","1"
"6.87428","5.1087","6.59677","1.6279","1.19421","0.138611","-17.5262","-35.7498","-21.5256","1"
"0.985031","-2.13675","9.647","-3.03386","0.481796","-2.37016","-6.14624","-30.7938","-30.0766","1"
"-5.6749","-0.923233","11.8766","-3.3699","0.579742","-4.5368","10.7849","5.23071","-42.9291","1"
"-1.90468","-1.02144","10.726","-0.568954","-0.0986938","-1.48044","3.2608","20.3125","-40.1047","0"
"-1.70244","-0.923767","10.4775","0.357071","0.0291901","-0.315063","-0.305176","19.7083","-40.5212","1"
"-6.11728","1.61787","14.7925","1.02837","-0.476257","0.705368","-2.54059","15.274","-42.9352","1"
"6.87056","-8.53603","6.52736","4.42632","-1.15619","3.41888","-6.6452","-7.10449","-42.7429","1"
"7.94045","-0.279236","-3.73955","2.59854","0.846436","1.43576","-19.0109","-33.3008","-24.4827","1"
"6.67754","6.95735","10.8254","-0.632095","-0.417969","0.0597839","-19.5862","-29.2633","-28.1891","1"
"2.86761","0.358704","13.1104","0.726334","0.880524","-0.491364","-14.2899","-35.0708","-24.0021","1"
"3.20708","1.1412","11.7301","-4.48753","0.353455","-2.5378","-6.30341","-16.3895","-39.679","0"
"-3.45299","-2.18011","11.6042","-2.63995","1.58232","-2.80138","6.5567","13.7665","-42.1158","0"
"-1.91109","-0.220169","6.18246","-0.12532","-0.366135","-0.199631","4.00391","20.9702","-39.035","1"
"-2.66991","-0.887405","9.88802","0.124252","-0.255264","0.0452881","2.73743","20.3903","-39.4943","1"
"2.08652","-6.55951","10.958","1.41844","-0.635513","1.1432","0.772095","14.8956","-42.395","1"
"13.7385","0.033493","-7.23393","5.95303","-1.41835","3.6627","-9.40399","-15.065","-37.5839","1"
"0.780426","9.72678","15.5308","0.905426","1.22495","-0.119278","-16.4612","-36.7279","-20.5307","1"
"0.0900116","8.7982","14.1946","-0.960571","-0.530335","-0.179016","-13.501","-29.8798","-30.304","1"
"4.36433","-2.94254","5.87599","1.12727","0.787277","0.248825","-12.4573","-35.8948","-23.7061","1"
"-9.26375","-1.86691","15.3957","-3.79449","0.138153","-3.89462","0.749207","-20.4895","-37.6373","1"
"-3.63614","-0.636017","11.6009","-2.52483","0.496643","-2.87871","8.78906","11.0825","-42.3157","0"
"-2.53825","-1.06078","10.2972","-0.0843048","-0.146515","-0.790649","3.48206","19.1452","-40.4068","0"
"-2.85297","-0.928391","10.8211","0.314835","-0.468811","0.230469","1.5152","17.5919","-41.7587","1"
"6.95616","-7.51202","7.53525","2.20212","-0.77269","2.31229","0.416565","7.6767","-45.2148","1"
"9.27672","-7.48038","5.0065","5.52466","-0.460495","3.28517","-15.863","-26.1948","-31.7307","1"
"5.78902","10.3928","14.7871","-1.54387","-0.626999","-0.590378","-16.1697","-30.9235","-29.5334","1"
"12.4637","-3.79364","-8.4139","1.91302","1.13026","0.212265","-17.8009","-31.8481","-27.4033","1"
"13.9717","-0.547028","-8.37325","-2.46582","-0.0480194","-1.63704","-9.2514","-31.0455","-31.1172","1"
"0.863129","-4.71436","7.11232","-4.3687","0.725174","-3.73438","3.03192","1.7334","-44.5129","1"
"-1.57135","-0.55603","8.82829","-0.798004","0.0861511","-0.883545","0.587463","19.664","-40.3534","0"
"-1.52356","-0.576096","8.29732","0.432587","0.294006","0.116501","2.95258","18.6539","-40.657","0"
"-6.03748","1.05635","14.834","0.731628","-0.313538","0.67186","2.49176","14.65","-42.8574","1"
"2.51695","-1.9808","9.06923","3.8465","-1.82687","3.43408","-3.60718","-5.26733","-43.5654","1"
"7.61909","-7.03276","-8.70451","4.0732","-0.393631","1.37506","-21.6156","-34.2972","-20.3949","1"
"11.6889","-1.17145","-8.83347","-1.72853","0.333603","-0.301819","-19.5038","-33.223","-24.7375","1"
"4.23288","-2.04286","5.40999","1.26506","0.924149","-0.254013","-14.7354","-36.2824","-23.2849","1"
"-4.97423","-1.25624","13.1422","-4.05513","0.0156097","-2.81219","-4.97589","-24.2249","-36.525","1"
"-3.12347","-1.62036","9.49182","-3.20129","0.879379","-3.68872","4.59137","9.55048","-43.5501","0"
"-1.55373","-1.56525","10.4118","-0.442535","0.319077","-0.916107","2.31934","20.3186","-39.3738","0"
"-6.14613","-0.373856","17.8238","0.228104","-0.25827","0.0614777","0.616455","19.725","-39.3097","1"
"-5.70644","-0.377853","17.6807","1.4483","-0.726837","1.37798","-1.49841","14.4394","-42.3187","1"
"3.06723","-5.65175","6.72798","5.53001","-1.39131","4.0069","-10.0952","-14.4424","-38.8107","1"
"11.3206","-1.06061","-8.3233","1.09114","0.851028","0.320694","-15.8249","-35.1303","-24.0326","1"
"5.93283","10.2447","15.8743","0.0310974","-0.172943","0.135574","-18.1107","-30.5374","-27.6749","1"
"9.6564","-4.56129","-8.2991","-0.0357971","0.73346","-0.667145","-12.1887","-36.1679","-24.2783","1"
"3.2489","-2.2249","4.35793","-3.99377","0.330322","-3.08995","-1.8158","-16.7923","-40.3076","1"
"-4.14062","-1.81206","9.42941","-2.93056","0.82135","-3.03078","3.20282","13.2629","-42.5156","0"
"-1.48172","-1.36658","9.60336","-0.02388","0.588867","-0.309631","4.68597","20.8221","-39.3051","0"
"-1.3777","-1.08203","9.68845","0.522034","-0.0940247","0.191101","5.37262","18.7454","-40.5655","1"
"-4.59265","1.57799","13.6634","0.605286","-0.521103","0.532852","3.93829","14.8117","-42.9382","1"
"-5.01353","1.25688","14.5362","3.37593","-1.90445","2.64651","-4.02985","-0.587463","-43.7668","1"
"5.25581","-4.96005","7.72676","4.72911","0.215485","2.39325","-20.9167","-30.7251","-24.6185","1"
"4.21518","6.80568","12.8287","-1.70789","-0.544571","-0.691757","-21.1426","-30.8853","-25.4334","1"
"11.7312","-0.620667","-8.4053","1.59749","1.24234","-0.181412","-17.2913","-34.8862","-22.6471","1"
"3.41811","1.36879","15.6723","-4.04077","-0.00172424","-2.51747","-8.01697","-24.4568","-35.4538","1"
"-8.2771","-1.36832","10.1204","-3.13347","2.43288","-3.66919","11.7722","9.06525","-41.9617","0"
"-3.5137","-1.59464","9.11226","-0.129166","-0.566727","-0.810165","9.35516","20.2545","-39.2532","0"
"-3.30675","-1.75946","11.2078","-0.129669","-0.348145","-0.269714","4.38995","21.1273","-38.9984","0"
"-0.217422","-1.33223","8.24333","0.854523","-0.50705","0.83844","2.16522","18.7744","-41.0446","1"
"10.7598","-7.05466","-7.34216","4.46507","-2.09209","3.19365","-5.24902","-3.83759","-42.5888","1"
"1.69418","10.0697","14.3067","4.3381","0.250229","1.29356","-21.817","-34.7916","-18.6966","1"
"10.1446","-4.27963","-15.2205","-1.759","-0.279373","0.0562592","-21.0892","-32.1014","-24.1913","1"
"8.61214","2.62311","8.03577","1.86957","1.5023","-0.313538","-17.9733","-35.8887","-20.8786","1"
"-6.88725","-2.82376","16.6091","-3.88515","0.277222","-2.55458","-6.73676","-27.2598","-33.5114","1"
"-3.29547","-1.15732","10.0832","-4.0486","1.39162","-3.31137","8.42285","11.232","-42.0792","0"
"-2.73151","-2.29428","10.3774","-0.248062","0.15242","-0.45166","9.26971","21.907","-37.9669","0"
"-3.32213","-1.61537","13.5014","0.088623","-0.184586","-0.192917","7.04651","22.4487","-37.6602","1"
"-3.01788","-1.1947","12.8807","0.539337","-0.424698","0.28215","4.92706","20.5292","-39.4653","1"
"7.91307","-3.28859","7.97841","2.86156","-1.48199","2.45052","1.474","6.93207","-43.9011","1"
"8.88618","-0.290939","-8.88649","5.57016","-0.305695","2.97287","-16.6","-27.89","-29.3106","1"
"0.410873","7.61514","15.28","-1.56111","0.267151","-0.509171","-17.3828","-33.1284","-25.2823","1"
"2.81715","7.60257","14.1587","1.18539","1.37709","-0.16954","-12.2528","-31.427","-29.2694","1"
"16.1162","2.52806","-1.2657","-1.26526","-1.01408","-1.31664","-2.29492","-33.0109","-29.6539","1"
"-5.07468","-1.15332","13.0707","-4.37379","1.04892","-4.23816","4.19006","-4.3747","-43.1122","1"
"-4.71158","-1.44817","8.21936","-1.08623","1.0173","-1.36928","8.33588","19.2902","-39.5203","0"
"-3.40779","-1.47472","8.90736","0.0193481","-0.0693054","-0.151367","10.7834","21.0434","-38.3057","0"
"-5.47298","0.104279","13.3394","0.466492","-0.681412","0.333618","7.66449","19.2398","-39.8911","1"
"-4.52165","0.998032","11.4097","1.4332","-0.312119","1.09813","5.36804","11.3052","-43.7225","1"
"6.41725","-5.49754","3.57306","4.50342","-1.44911","3.3936","-3.56445","-13.8092","-39.7964","1"
"4.9546","1.0493","-2.78238","2.31453","0.619766","1.37106","-20.636","-36.7355","-17.0975","1"
"9.41284","8.34021","12.9098","-1.23889","-0.577759","0.190948","-21.109","-30.6808","-25.3693","1"
"9.47241","-1.29398","-7.77747","1.25493","0.867905","-0.779602","-16.9983","-37.1628","-19.3146","1"
"-8.63608","-0.352676","10.2286","-4.57315","0.322998","-3.04175","-5.19409","-21.936","-36.5616","1"
"-3.55798","-0.351562","9.22226","-2.50598","1.70158","-2.71544","8.23822","9.87701","-42.8909","0"
"-2.97308","-0.117157","9.40387","-0.214264","-0.174973","-0.344788","12.5732","17.4332","-39.6317","0"
"-2.88695","0.207993","10.6104","0.142929","-0.148987","-0.0642548","8.94928","17.0944","-40.889","1"
"-1.882","1.16644","11.2637","0.309784","-0.366409","0.408722","8.16498","15.0848","-41.89","1"
"9.30073","-3.83192","4.29555","1.76918","-1.10515","1.87483","5.01862","5.43976","-44.2261","1"
"6.34444","2.14642","-8.72868","5.37416","-1.6893","3.11522","-17.2882","-23.9517","-30.7922","1"
"4.01125","1.39487","-4.22833","-0.668839","0.0891876","-0.2323","-21.8246","-34.0485","-20.0378","1"
"11.6479","-2.57733","-12.5693","-0.156723","0.0259705","-0.151764","-23.5901","-27.6215","-26.6983","1"
"3.93788","-2.9859","-0.025116","0.469986","0.910416","-0.272614","-16.0614","-34.7748","-22.8928","1"
"2.25694","-3.50975","4.02928","-4.47841","0.194061","-3.75844","-5.30701","-16.6306","-38.0783","1"
"-2.47699","-2.02872","10.9984","-2.7527","0.55484","-2.28336","-0.244141","13.3728","-42.0197","0"
"-2.69711","-2.21523","11.1888","-0.290329","-0.0646515","-0.326752","-1.21002","20.932","-38.8199","0"
"-2.43527","-1.43271","13.4293","0.0955353","-0.238968","0.155777","-1.9928","20.9213","-38.1912","1"
"-1.91322","-0.0210724","16.1247","1.06451","-0.67955","0.818191","-3.26843","17.2638","-40.4373","1"
"9.35939","-4.60478","-3.23572","4.97565","-0.85849","2.73164","-9.84344","-6.19965","-40.5334","1"
"8.47615","7.12714","5.15283","3.04524","0.493454","1.64566","-18.2526","-34.8846","-20.0821","1"
"7.88551","9.28279","10.1259","-0.929932","-0.705856","0.484604","-24.8657","-29.8004","-22.3648","1"
"6.49391","-1.32037","4.62175","0.72644","1.13367","-0.860077","-18.9392","-35.3241","-19.2856","1"
"-2.91196","-2.19232","8.33119","-4.54129","1.16626","-3.30956","-4.00696","-17.7689","-37.8098","1"
"-6.99202","-2.3774","10.844","-2.36914","1.30135","-2.82883","11.026","14.4455","-40.2527","0"
"-1.94206","-1.22163","10.4291","-0.0900421","-0.600403","-0.239807","5.78308","20.9747","-39.093","0"
"-2.4173","0.162781","5.28026","0.317551","0.0594177","0.0663605","5.27344","19.5084","-39.476","1"
"-5.41689","1.42798","14.3834","0.986145","-0.548828","0.707794","3.53088","14.6469","-42.0303","1"
"12.2496","1.40317","-9.39372","4.08214","-1.59471","3.35359","-2.70538","-6.8573","-41.5283","1"
"5.8828","9.49527","16.0235","2.76447","0.828827","1.58359","-17.0639","-33.8638","-23.4589","1"
"5.80627","7.74188","13.274","-1.23863","-1.08432","0.186584","-21.7133","-28.8239","-27.3102","1"
"1.56757","-6.00861","2.25941","1.38745","0.597183","0.210602","-22.5723","-32.3364","-22.6608","1"
"-2.07178","0.589767","12.9486","-3.54233","1.27512","-3.5777","-7.83386","-22.9004","-35.7895","1"
"-3.5533","-2.09367","10.4618","-3.64488","0.835144","-4.11835","3.94592","10.3943","-42.9596","0"
"-4.05476","-2.75493","10.3085","-0.143097","0.156174","-0.879242","0.308228","22.85","-38.3255","0"
"-2.15186","-1.02945","10.1026","0.643677","-0.120941","0.35434","0.648499","19.3588","-40.2267","1"
"-3.36728","0.553467","12.9312","0.98996","-0.553329","1.21016","-0.45166","13.7756","-43.5272","1"
"15.8435","-2.03336","-9.67551","4.13666","-1.95265","3.58275","-8.26263","-6.35223","-42.9901","1"
"15.7243","-1.62286","-8.34502","2.4386","1.47108","0.962326","-18.3716","-29.8935","-29.39","1"
"7.54237","1.44702","7.69844","-1.68869","-1.05994","-0.429749","-17.9916","-23.175","-35.1456","1"
"8.10312","-1.39764","-0.349777","2.39777","0.987091","0.499191","-17.2455","-29.8492","-29.7119","1"
"-0.81189","-1.31692","7.23264","-3.048","0.121063","-1.9131","-11.467","-25.0397","-35.6918","1"
"-5.09796","-1.0121","12.3461","-3.2269","1.60094","-3.51158","5.09644","3.70483","-45.2713","0"
"-2.21312","-0.694244","9.89951","-0.730179","-0.0101318","-1.1255","5.03235","19.3024","-41.745","0"
"-2.9679","-1.32341","10.5635","0.244431","0.0932312","0.235077","4.94843","18.3548","-41.7313","0"
"-1.76733","-0.411438","10.2884","0.238525","-0.0262451","0.279648","6.14929","16.0538","-42.6239","0"
"-5.33243","1.59964","15.4126","0.265167","-0.31485","0.39502","5.81665","14.0869","-43.6676","1"
"5.37967","-0.905472","9.87581","3.43767","-2.11299","2.53111","-3.80707","-0.680542","-44.5023","1"
"9.289","-2.46774","-9.18939","4.47588","0.67186","1.84528","-16.7267","-31.8817","-27.0798","1"
"3.37315","9.74754","14.0337","-1.56633","-0.268387","0.100494","-18.5684","-33.107","-25.7294","1"
"11.5848","-4.23137","-22.7496","1.49203","0.885818","0.020813","-18.0222","-33.2764","-25.5753","1"
"3.63666","-0.391998","7.36884","-2.51888","0.261887","-2.15958","-7.54395","-30.5817","-31.7703","1"
"-6.50932","-0.0306091","10.169","-3.23338","1.78767","-4.02712","9.21936","-1.23138","-43.8599","0"
"-3.99252","-0.543503","10.0453","-0.649216","0.554276","-1.13913","19.1422","17.3386","-38.1577","0"
"-4.28874","-0.770615","9.98477","0.0266724","-0.436554","-0.0342865","15.181","18.1808","-39.1373","1"
"-4.47855","-0.0130463","10.9622","0.210052","-0.311844","0.258347","13.0035","16.9647","-40.7089","1"
"-9.3573","-0.969025","14.2156","1.80109","-1.47577","2.01859","8.91571","7.60193","-44.0659","1"
"6.67349","-5.32095","0.481171","5.54955","-1.07832","3.71858","-12.0911","-26.4328","-32.3746","1"
"5.62543","4.45071","1.12434","-0.900101","0.081665","0.213181","-19.1696","-34.6863","-23.3551","1"
"9.38988","2.72537","2.58563","1.2948","0.811722","-0.0299683","-20.3888","-32.7988","-24.7238","1"
"-0.414948","-0.828171","5.75647","-2.2975","-0.402298","-1.55598","-12.1765","-32.1442","-28.1921","1"
"-8.3407","-0.409988","13.1653","-3.44623","1.8107","-4.10173","6.79932","-5.11627","-42.9764","1"
"-7.94576","-0.272659","12.612","-0.996521","1.13087","-0.887085","17.392","14.1693","-39.2761","0"
"-5.20888","0.139023","11.5577","0.0580902","-0.436539","-0.318726","15.8005","16.7557","-39.0488","1"
"-8.02521","0.487991","11.5526","0.393921","-0.652054","0.552444","12.6999","14.8453","-40.8386","1"
"-6.14774","0.296844","11.4156","2.90811","-2.15071","3.15712","3.09296","-1.77765","-43.7927","1"
"13.5522","-3.85832","-0.569656","3.74634","-0.382736","2.06526","-17.3218","-32.0892","-25.7568","1"
"3.85249","2.24855","1.11482","-1.70448","-0.155182","-0.131927","-19.2444","-27.6825","-29.863","1"
"5.25648","1.51656","8.37732","1.7438","0.98082","0.0970917","-15.303","-33.4351","-25.6424","1"
"-3.59045","-3.18378","9.11327","-3.34193","0.734299","-3.59793","-0.656128","-22.7585","-36.8439","1"
"-6.25308","-3.66724","10.8899","-2.74504","0.327469","-2.99428","7.90558","8.51135","-43.5761","1"
"-3.87692","-1.23543","8.78247","-0.442841","0.917999","-0.607132","12.1384","20.1431","-38.9511","0"
"-2.74207","-0.90451","9.4205","0.253387","-0.392105","-0.0424347","10.7712","19.4839","-39.3814","0"
"-1.94572","-0.694138","9.97867","0.0379791","-0.391937","0.10788","8.03986","18.8004","-40.3793","0"
"-1.75854","-0.928955","9.32951","0.035141","-0.188339","0.176498","6.61926","18.1686","-40.9241","0"
"-2.05482","-0.896088","9.62016","0.00738525","0.0201111","0.107498","7.10907","17.6682","-40.4449","0"
"-3.5583","0.0176849","11.5589","0.120773","0.0361328","0.12558","8.08105","17.0074","-40.4861","1"
"-2.95049","-0.184357","14.2317","0.105392","-0.137192","0.176224","7.69653","16.3223","-41.3132","1"
"9.32622","-4.96243","-1.27808","2.13905","-1.45805","2.15823","3.66669","6.42548","-44.1498","1"
"5.24419","7.36761","10.0015","5.29388","-0.62204","3.07036","-13.1332","-25.2319","-31.7703","1"
"10.7075","-1.68697","-13.5802","-1.0034","-0.337189","0.0906067","-18.8141","-33.2108","-23.9761","1"
"7.21904","-0.809341","7.12282","1.4622","0.332001","0.299271","-22.197","-32.9453","-21.7224","1"
"6.53714","-0.645142","8.23422","-3.18867","0.958221","-2.77031","-10.9192","-28.2379","-31.0318","1"
"-12.5797","-4.81786","14.9644","-2.9306","2.12158","-4.33818","13.9282","3.76434","-41.9785","0"
"-5.6785","-1.82657","9.24286","-0.512863","-0.374176","-1.47668","13.5223","20.5276","-38.089","0"
"-2.55025","-1.0005","9.95361","0.246124","-0.45842","-0.16452","5.82581","20.9808","-39.0717","1"
"-8.58197","0.934326","15.6401","0.320007","-0.51471","0.331161","3.01514","19.3695","-40.8157","1"
"6.05089","-7.99535","5.50983","2.59361","-1.17305","2.04448","-0.498962","8.22907","-44.0323","1"
"10.2333","0.880051","-7.58568","6.40952","-0.477203","3.13608","-16.7892","-29.0283","-26.9669","1"
"5.9782","0.426147","-3.71558","-1.56992","-0.413406","-0.0157318","-21.7834","-35.0281","-19.7403","1"
"11.8369","-0.638672","-8.79175","1.62094","1.18692","0.185242","-22.6959","-33.6899","-20.8832","1"
"-3.23726","-3.37852","10.3231","-2.62389","0.852173","-2.4357","-9.54132","-31.9534","-28.3859","1"
"-10.0314","-1.7715","11.3076","-3.25678","2.44893","-4.39874","19.6777","2.63214","-38.7238","1"
"-6.37653","-1.52077","7.4198","-0.286148","-0.0453644","-1.061","19.4504","18.7469","-35.788","0"
"-4.14479","-0.960434","9.52947","0.0210571","-0.769501","-0.178894","14.2258","20.2866","-37.4481","0"
"-3.38234","-1.22266","9.87393","0.122925","-0.389725","0.0570221","10.8383","20.2316","-38.4232","1"
"-5.97174","0.54245","14.1458","0.491272","-0.589508","0.2724","8.44116","17.5034","-40.9699","1"
"2.49156","-0.0136871","7.93642","3.04353","-1.98814","2.41653","-0.872803","2.36053","-44.3466","1"
"6.2498","-4.3951","-4.35657","5.21571","-1.22424","2.23462","-20.4498","-29.007","-25.6821","1"
"6.76825","7.84586","8.24153","-0.774734","0.157639","0.00863647","-24.0768","-35.9421","-16.1621","1"
"10.8481","-4.16873","-18.8604","1.12347","0.468597","0.164917","-27.4902","-32.6355","-18.8171","1"
"-8.61438","-3.27357","14.4136","-3.15115","1.47987","-2.73505","-12.5839","-30.6183","-28.6942","1"
"-5.15175","-1.02599","12.419","-3.13867","1.55952","-4.21634","13.3423","2.54517","-42.8162","0"
"-2.94231","-0.955017","10.2095","-0.100952","-0.663147","-1.09007","10.4111","16.4185","-41.3788","0"
"-1.90034","-0.578629","8.58933","0.0106659","-0.150497","-0.400711","3.0777","17.6407","-41.6077","1"
"-2.09801","-0.283707","11.208","0.0967712","-0.0980225","0.0571594","1.98669","17.1448","-42.1707","1"
"3.2301","-6.76479","9.12085","1.21541","-0.935623","1.37886","-0.45166","13.0005","-43.718","1"
"5.98334","-7.74414","8.79143","6.29472","-2.32004","4.12689","-16.3055","-17.366","-35.1654","1"
"10.8614","11.6801","14.1821","0.395462","0.275665","0.279831","-27.8503","-33.8272","-16.4001","1"
"10.1175","9.69457","12.0139","0.0590515","0.185364","0.0316315","-29.0634","-28.9841","-22.3724","1"
"1.82013","-3.94322","4.6328","-0.0449524","0.366013","-0.479202","-24.9573","-34.0118","-19.8441","1"
"-5.06137","-0.772781","12.6982","-4.33296","1.72325","-3.44856","-7.12585","-18.0649","-39.7446","1"
"-2.79694","-0.113586","11.8505","-2.24661","0.520004","-3.29039","4.46472","11.5082","-44.2963","0"
"-2.40152","0.00556946","10.6148","-0.0498047","-0.0763092","-0.195908","-0.0610352","16.9922","-43.4357","0"
"-2.86055","-0.0453033","13.2599","0.177063","0.157181","-0.105133","1.08948","16.0812","-42.7551","1"
"-7.19354","-1.0352","15.3321","0.612915","-0.570572","0.821777","-0.822449","14.0366","-44.4443","1"
"10.3144","-6.0909","3.37132","4.7038","-2.33325","4.08803","-11.3068","-7.56073","-42.0212","1"
"9.06484","-7.85451","-1.599","3.14944","-0.241074","0.736099","-27.3361","-33.0551","-19.1834","1"
"6.66521","1.7699","-1.14061","-1.17741","-0.0339355","0.153702","-28.801","-29.5013","-23.2407","1"
"7.95793","-1.89294","-1.05014","1.41017","0.71312","-0.325241","-25.3265","-34.9396","-18.3807","1"
"2.60767","0.591339","8.13744","-4.20987","0.847061","-2.31899","-16.272","-25.0671","-34.3704","1"
"-4.89566","-1.9003","12.4802","-3.59933","1.3564","-3.82085","1.19629","6.96564","-45.7413","0"
"-1.91957","-0.488251","8.90906","-0.261261","0.179153","-0.918289","-1.64032","18.5852","-42.8635","0"
"-1.94461","-0.513977","10.2231","0.265411","-0.019104","-0.110428","-2.20337","17.1997","-43.2938","0"
"-4.31789","1.69272","14.0459","0.76651","-0.202332","0.784851","-1.92413","13.5941","-45.0989","1"
"8.61662","-7.34413","-13.9031","3.36372","-1.21642","3.57874","-4.76837","-4.04663","-45.4147","1"
"10.7287","-3.69916","-10.7702","4.34642","-0.725647","2.09048","-25.824","-31.3721","-22.9141","1"
"8.53546","10.544","13.7693","-1.64055","-0.247726","0.153015","-27.6901","-29.8325","-24.2172","1"
"6.63983","-0.711792","3.5332","1.52936","0.98027","-0.160751","-27.034","-31.4178","-22.8088","1"
"-6.76242","-3.39796","13.688","-3.48932","1.26468","-2.6869","-15.4694","-25.2792","-34.5627","0"
"-2.92664","-1.19429","13.8071","-3.54828","1.1156","-3.82674","4.31671","6.42548","-45.7169","0"
"-1.8737","-0.784592","9.80447","-0.477829","-0.211594","-0.600571","0.804138","19.5724","-42.4561","0"
"-2.10663","-0.745132","9.2338","0.348831","0.287598","0.158569","1.96686","19.1238","-42.305","1"
"-1.11139","0.318405","11.683","0.46373","-0.143875","0.411865","2.55737","15.9302","-44.4138","1"
"9.13686","-7.42476","1.46457","3.17769","-1.55556","3.21941","-0.875854","0.700378","-45.9854","1"
"6.05621","4.24655","4.57513","4.83301","-0.565872","2.5284","-21.73","-31.514","-25.441","1"
"7.16005","7.80402","9.38083","-1.66783","-0.297394","-0.0743103","-24.6567","-31.2271","-25.3876","1"
"8.38649","-0.660111","5.04861","1.52097","0.93988","-0.0226135","-23.7","-33.699","-22.8119","1"
"8.85127","0.712265","6.61101","-3.54791","1.16856","-2.89783","-10.9467","-25.7385","-35.5728","1"
"-6.06734","-3.69286","14.9265","-3.27379","0.526947","-3.96973","7.26929","7.2403","-44.9097","0"
"-1.81226","-0.982391","8.63272","-0.441666","0.0962677","-0.947281","-0.991821","21.1823","-42.2424","0"
"-1.50307","-0.938675","10.9082","0.255188","0.251663","0.00666809","0.93689","19.9509","-42.4118","0"
"-5.81891","-0.00909424","13.162","0.410172","-0.0533295","0.135986","0.845337","17.8177","-43.7469","1"
"2.43028","-4.57257","10.0104","2.58293","-1.16914","2.63655","-0.527954","6.74286","-46.0739","1"
"8.47064","-5.57896","-10.5216","5.60977","-1.58925","2.84084","-22.8821","-27.2675","-28.3249","1"
"9.20316","11.3545","13.8199","-1.46564","-0.108841","0.486511","-29.776","-29.4708","-23.4863","1"
"9.68073","-5.53479","-7.46108","1.71832","0.759842","-0.420639","-27.8244","-31.6055","-22.2275","1"
"1.56827","-4.33896","5.68131","-3.46677","1.10826","-2.35478","-16.8594","-27.3682","-33.1161","1"
"-5.3857","1.54471","10.8444","-3.48178","0.994858","-3.38739","2.95258","3.83148","-46.7606","1"
"-1.9566","-0.400436","10.0686","-0.797226","0.258591","-0.62291","4.31061","18.5638","-43.5242","0"
"-2.0696","-0.842285","10.9097","0.0806427","0.154327","-0.302963","2.42157","19.7433","-44.574","0"
"-5.55554","-0.178482","12.4202","0.188171","-0.0789642","0.15683","3.69873","18.2587","-43.6615","1"
"-2.40256","-1.07083","12.0122","1.47514","-0.491486","1.45851","4.04511","10.9985","-45.932","1"
"8.23712","-12.162","-23.011","5.73083","-2.91801","3.97798","-17.0715","-18.4097","-36.5097","1"
"6.55154","8.9171","8.49141","0.379623","0.13356","0.267731","-30.2628","-32.8506","-18.071","1"
"3.85278","8.81023","12.3153","0.582855","0.483124","-0.169571","-29.6249","-30.1666","-23.822","1"
"8.6433","0.118118","4.4037","-1.61473","0.53801","-1.06139","-22.8958","-32.7927","-25.9613","1"
"-5.46115","-1.78029","14.0744","-4.63533","1.73488","-4.17087","-2.72369","-7.25098","-45.903","1"
"-2.89442","-0.608414","12.7469","-1.23833","0.638077","-1.34853","3.37524","16.0782","-45.3339","0"
"-2.01109","-0.796677","9.55345","0.0463409","0.195175","-0.388626","4.04968","19.3298","-43.6295","0"
"-1.56685","0.267868","11.0272","0.234436","-0.0383759","0.12059","4.25873","17.9184","-44.046","1"
"5.75929","-6.09215","8.45543","0.802856","-0.538559","0.8573","2.99835","14.0656","-45.7993","1"
"7.95445","-6.7627","5.14073","5.44003","-3.03824","3.93571","-14.6149","-11.9476","-41.2369","1"
"9.21974","8.31081","11.3881","1.74423","0.127853","0.782761","-30.5923","-32.4509","-19.249","1"
"8.09685","5.30424","9.60577","-0.221176","-0.0213623","0.101913","-32.3608","-27.7954","-23.7701","1"
"7.88422","-3.08548","-5.79936","-0.159958","0.643204","-0.915085","-27.3575","-33.0902","-22.5662","1"
"1.72705","-1.9082","7.55463","-4.36514","1.34135","-3.20813","-12.6877","-16.4825","-42.3874","1"
"-4.02565","-0.683441","11.5666","-2.98018","0.547806","-2.50658","-1.08643","12.5809","-46.843","0"
"-1.17267","-1.59669","10.1399","-0.188553","0.414307","-0.606796","-1.30615","21.4294","-43.1732","0"
"-2.13445","-1.08636","11.1413","0.161255","-0.044342","-0.111145","-2.01416","20.5826","-43.132","0"
"-7.34854","1.05191","17.6975","0.360138","-0.117706","0.255051","-1.87225","18.5516","-44.6304","1"
"9.3555","-6.35022","4.577","2.84077","-1.7103","2.8167","-6.10809","6.83746","-47.4243","1"
"5.55878","-0.575546","-3.45482","5.61493","-1.26746","2.36649","-25.9079","-25.9003","-29.7165","1"
"8.72591","2.97481","0.985733","-1.77811","-0.0827789","0.422607","-30.8838","-28.0945","-25.7263","1"
"7.47716","7.02217","11.7667","1.86691","0.442062","-0.105667","-31.1203","-27.7039","-25.444","1"
"-0.308853","-6.52942","4.02257","-1.76068","0.624512","-1.44624","-25.6729","-30.4626","-27.095","1"
"-1.56845","0.570969","13.1292","-4.58571","0.634232","-3.88445","-5.57861","-5.71289","-47.023","1"
"-6.91461","-1.38724","13.1596","-1.814","0.771072","-2.15599","-6.633","17.3447","-45.6131","0"
"-1.09746","-1.16476","9.5489","0.358978","-0.243149","0.348633","-6.44226","19.2688","-44.426","0"
"-1.00104","-1.24995","10.1855","0.131592","0.219666","0.0485382","-5.33447","18.071","-45.05","0"
"-1.854","-0.240463","12.018","0.588562","-0.209686","0.732071","-4.14124","15.1215","-46.8384","1"
"5.06335","-5.61559","5.41241","4.1533","-1.30908","3.75725","-8.99048","-4.58221","-46.1563","1"
"8.0359","0.242355","-6.04085","3.33545","-0.0953979","1.79134","-26.2543","-31.0562","-25.8041","1"
"7.59822","9.29633","15.1757","-1.69304","-0.535873","0.332596","-29.5502","-26.0056","-29.3213","1"
"10.3983","-3.10689","-8.11783","1.99271","0.447266","-0.0794067","-29.9011","-29.3671","-24.9481","1"
"-5.81621","-1.02986","7.29471","-2.9987","1.01189","-2.30748","-19.6335","-26.3153","-33.7906","1"
"-1.38788","0.0495605","12.695","-3.49477","1.25764","-3.44479","-1.3855","0.0579834","-47.4884","0"
"-1.46313","0.0542755","8.79901","-1.01393","-0.008255","-1.45079","0.0823975","17.7902","-44.9539","0"
"-1.65024","-0.0596924","8.07076","0.20076","0.177506","-0.513031","-1.96838","18.6096","-44.7418","1"
"-6.20009","2.8284","15.9623","0.200607","-0.11795","0.0462646","-2.70386","17.3065","-45.4239","1"
"7.80028","-4.53009","8.52889","1.11209","-0.347855","1.2281","-3.24707","12.7151","-46.7682","1"
"9.1214","0.539642","-8.33621","5.04749","-2.2979","4.10342","-16.597","-12.1994","-40.979","1"
"6.2339","-0.212021","-4.95403","0.766876","0.350266","0.685303","-28.1662","-29.5044","-25.4807","1"
"11.221","-2.37178","-7.57364","0.595962","0.207932","0.209686","-30.5634","-24.4781","-28.7445","1"
"8.961","-3.311","-4.43532","-0.594742","0.743683","-1.13632","-22.966","-30.7388","-27.9266","1"
"1.19719","-3.04367","8.77211","-3.96614","1.31801","-3.97443","-5.18036","-10.0174","-45.4453","1"
"-3.10327","-0.406464","10.7775","-1.81899","0.429092","-2.90839","-0.267029","13.6902","-46.5912","0"
"-1.99631","-1.01004","9.8589","-0.00869751","0.0706787","-0.11113","-1.3443","19.6915","-43.9728","0"
"-4.79395","-0.0170898","14.1231","0.166443","0.0777283","0.135971","-0.598145","18.959","-44.2581","1"
"-7.53192","-3.91321","14.5779","0.878326","-0.332977","1.14998","0.0595093","15.1123","-46.3043","1"
"-4.63901","-5.34416","13.9895","5.09113","-2.52725","4.50716","-12.3749","-9.69696","-42.6071","1"
"10.9","11.8097","14.4038","1.54546","0.172684","0.690384","-28.6255","-31.9138","-21.666","1"
"8.40074","-4.94029","-17.8386","0.194901","-0.0846252","0.312805","-31.8497","-26.796","-25.1129","1"
"9.01221","-8.52154","-19.3603","-1.03642","0.785492","-1.14926","-25.8896","-31.3461","-24.6765","1"
"7.64987","-1.65324","7.08043","-4.49763","0.878601","-4.09682","-6.99768","-8.4259","-45.1309","1"
"-0.896744","0.0454407","11.0289","-1.77171","0.806961","-1.75436","-2.86255","16.4856","-45.1874","0"
"-1.85327","-1.25694","9.07658","0.0992584","0.273148","-0.265686","-0.90332","19.1895","-44.1467","0"
"-0.256027","-0.0962067","10.1994","0.0592957","-0.238159","0.135727","-1.58081","18.0405","-44.3726","0"
"-1.09956","-0.531509","9.75558","0.104095","0.0527496","-0.0228119","-1.46637","17.6498","-44.7281","0"
"-1.28333","-0.148407","9.94913","0.0585022","0.0301361","0.0147095","-1.34277","17.0258","-44.7022","0"
"-8.35829","1.17432","16.7607","0.0863495","0.164703","0.057724","-0.00762939","16.4536","-44.4687","1"
"-6.66861","2.196","17.2541","0.542068","-0.338699","0.558273","0.25177","14.1068","-45.9167","1"
"1.77065","-3.13489","11.9124","3.94023","-1.74963","3.46524","-8.6441","-4.76379","-45.0638","1"
"5.11516","10.5072","16.4257","3.39545","-0.367874","1.63278","-26.5686","-31.9092","-22.5372","1"
"10.0213","-5.07915","-11.3147","-0.968979","-0.520737","0.471283","-31.3461","-27.2369","-24.9985","1"
"10.5712","-1.9994","-11.2602","0.936661","0.859406","-0.659653","-28.3508","-32.547","-20.6909","1"
"-2.77434","-2.83388","15.8142","-4.9059","1.66724","-3.11441","-13.0249","-17.038","-40.1627","1"
"-3.52005","-4.31973","14.1326","-3.03984","0.492691","-3.05594","-4.0863","15.4877","-44.7067","0"
"-1.76469","-1.78246","9.89448","-0.409744","0.583618","-0.991913","-7.61414","24.0982","-40.181","0"
"-1.2355","-1.2383","10.0979","0.457642","0.070755","0.420334","-5.39398","21.9284","-41.3803","1"
"-7.69908","-1.71576","12.0034","0.681335","-0.099411","0.583969","-2.72827","18.1854","-43.4479","1"
"9.73468","-5.73183","4.21696","4.06073","-2.74042","3.47783","-10.4828","0.689697","-44.136","1"
"8.51231","2.5224","0.56221","4.7776","-0.177139","1.4305","-30.2322","-28.6453","-21.5271","1"
"10.7706","3.11061","3.25076","-1.33984","-0.240433","0.229279","-32.0587","-28.0579","-20.9259","1"
"14.1469","2.4191","-0.751526","1.42839","1.00612","-0.734848","-27.1896","-32.753","-18.8965","1"
"-1.49829","-4.91949","8.9384","-4.50607","0.530579","-1.67067","-20.3949","-22.403","-33.255","1"
"-4.64006","-0.479324","16.0399","-3.5984","1.65729","-2.81067","-6.15234","7.341","-44.7327","0"
"-3.55673","0.377594","14.2047","-0.275711","0.328613","-0.424225","-0.753784","18.3929","-42.778","0"
"-1.61574","-0.246689","9.48711","0.172745","0.118851","-0.0961304","0.0320435","17.5583","-42.6468","0"
"-6.42351","1.64629","15.0809","0.439011","-0.250214","0.495483","0.117493","15.4663","-43.8828","1"
"6.53677","-3.5836","8.74541","3.62633","-2.1666","3.20316","-6.77338","-2.06757","-43.6371","1"
"8.88606","-2.64778","-15.0772","4.40804","-1.02742","1.47569","-27.3804","-31.1081","-18.8843","1"
"8.34116","9.94255","11.4434","-1.36563","0.281052","0.166794","-30.4657","-29.3182","-19.9936","1"
"8.07367","-2.84416","-6.62387","1.0442","0.494598","-0.311295","-27.1118","-33.0856","-18.0237","1"
"5.99817","0.831223","11.1003","-4.00894","0.702545","-2.13829","-18.1107","-23.0545","-33.7692","1"
"-3.05443","-0.751999","10.8625","-4.0105","1.72658","-3.50774","-2.05688","6.81305","-44.6121","0"
"-0.89061","-1.56326","10.9316","-0.574081","0.362762","-1.09094","-1.28326","22.319","-39.9643","0"
"-0.614914","-1.26753","9.3775","0.236694","-0.399612","0.216171","-2.37579","20.9213","-40.2924","0"
"-0.190155","-0.975967","9.51659","0.156219","-0.0465698","0.0952301","-3.2959","19.6548","-41.0919","0"
"-0.598465","-0.849609","9.40669","0.103058","-0.0737152","0.12384","-3.1601","18.7378","-41.3635","0"
"-1.32788","-0.823303","10.6901","0.12706","0.0471039","0.0999298","-2.07672","17.5583","-41.5726","0"
"-1.28391","-0.624451","10.8493","0.0648193","0.0991669","-0.00315857","-1.3855","17.128","-41.7435","0"
"-2.7811","-1.04179","8.06014","0.206741","0.224121","0.0748749","0.192261","16.3269","-42.2806","0"
"-3.14517","-0.765396","8.30876","0.0494385","0.75412","0.245712","5.93414","15.5807","-42.2958","0"
"-2.33783","0.349014","9.90161","0.165131","-0.208267","-0.0637665","7.14417","14.7736","-42.4744","0"
"-0.702866","0.868622","8.92215","0.591675","-0.683243","-0.449997","1.18561","11.8088","-44.2932","0"
"-0.241806","0.439407","9.71454","-0.197723","0.0104675","0.18367","-0.59967","10.8154","-45.4285","0"
"-0.239151","1.12439","9.70238","-0.132019","-0.0335846","0.181152","-0.196838","12.0514","-44.9249","0"
"0.554779","1.19124","8.61687","0.208618","-0.0641937","0.0581665","-0.427246","12.1902","-44.9844","0"
"0.741898","2.09328","9.07314","0.111084","-0.320053","-0.157776","-3.24097","9.87549","-45.5124","0"
"0.732269","0.676254","9.54836","-0.392929","-0.26683","-0.440781","-6.09436","11.3266","-44.8853","0"
"0.358292","0.663925","9.22307","-0.154129","0.14183","-0.251526","-7.24182","13.6078","-43.8904","0"
"-1.99683","0.894684","9.73601","0.195831","0.187515","-0.151459","-0.42572","10.5682","-45.3262","0"
"-0.247223","0.920563","9.48172","-0.144592","-0.129959","-0.280075","-1.12152","10.6308","-45.9732","0"
"-0.0405426","1.12956","9.23108","0.240006","-0.213699","-0.334503","-3.55682","10.5072","-45.7809","0"
"-0.388107","1.38872","8.59315","-0.101486","-0.0801697","0.0500641","-5.41229","10.112","-45.871","0"
"-2.33871","1.82645","9.23138","-0.113373","0.391556","0.0882721","-2.33612","10.8978","-45.3171","0"
"-1.6391","-0.598602","10.966","-0.387878","0.0470734","-0.124741","-0.762939","13.3484","-44.5358","0"
"-1.0334","-0.11676","10.9671","0.0840912","-0.393723","-0.220963","-4.02527","13.3209","-44.3069","0"
"-1.25127","0.580719","9.55199","-0.214859","0.198822","0.305038","-3.97186","14.3127","-43.8034","0"
"-1.40791","0.561157","9.68628","0.0531158","0.128067","0.37886","-0.300598","14.5065","-44.0399","0"
"-0.926147","1.6293","8.056","0.397858","-0.0549164","0.525818","0.401306","11.2671","-45.0577","0"
"-0.922485","1.28427","8.16324","0.140884","0.114563","0.212631","2.80609","9.92584","-45.2103","0"
"-0.692078","1.28412","8.76131","0.0320435","-0.221924","-0.359177","1.33057","9.51233","-45.6467","0"
"-0.533325","0.979004","9.25438","-0.151352","-0.166","-0.123611","-1.50452","9.94263","-45.6314","0"
"0.266357","0.216553","8.81383","-0.0737","-0.0474701","0.141174","-1.81732","10.8551","-45.3079","0"
"0.804764","0.178772","10.273","-0.248749","-0.172195","-0.0108032","-2.21863","11.6592","-44.9814","0"
"0.731445","1.05876","11.2216","-0.310532","-0.354248","-0.339386","-5.92651","14.2548","-43.7637","0"
"1.16586","0.996124","11.1834","-0.158295","-0.076889","-0.132645","-8.16498","15.2603","-42.8848","0"
"0.682388","-0.158524","9.50777","-0.018692","0.0532074","0.236771","-7.27234","15.6525","-42.9886","0"
"0.440521","-0.523743","9.36745","-0.0432587","0.050766","0.0632172","-6.37512","16.2598","-42.7338","0"
"0.622375","-0.631699","9.56288","0.0227203","0.014801","0.00624084","-6.10962","16.1865","-42.8009","0"
"0.202545","-0.663223","9.67368","0.00939941","0.0422974","-0.0682526","-5.90668","16.0553","-42.8848","0"
"0.695297","-0.651199","9.24287","-0.0392151","0.0582275","0.0185394","-5.83343","16.1087","-43.0649","2"
"4.0968","2.24007","19.4371","1.09232","-1.71745","1.16222","-10.3333","14.534","-43.1641","2"
"-0.857544","-4.79031","1.31645","5.03561","-1.85948","2.24051","-24.3073","-8.17718","-38.0737","2"
"13.3994","-16.9485","10.8659","3.65121","-0.679504","1.29918","-37.1994","-25.9567","-14.5889","2"
"19.4875","2.10129","12.6866","-1.06091","2.4794","2.44576","-39.0305","-13.3408","-21.8826","2"
"-3.0955","-1.47499","-4.76515","-2.38605","2.37987","-0.784058","-25.0381","6.91528","-38.0325","2"
"-2.69402","-4.50241","-3.63669","2.22363","-2.91692","-1.41522","-32.2052","-0.98114","-31.5247","2"
"17.7548","-14.1165","12.1823","2.4045","-0.410446","-0.588425","-43.0405","-17.5461","-10.051","2"
"4.83847","2.14919","17.715","-2.19487","3.55707","1.81825","-35.6674","-4.87366","-27.4582","2"
"5.1366","3.08916","17.6387","-3.18488","5.20338","-4.16885","-9.76257","16.6183","-40.7944","2"
"0.570541","-1.8432","11.4281","0.0588379","2.46008","-2.2906","0.418091","23.1094","-38.8535","0"
"0.0673065","-1.13765","10.2972","0.275131","0.421951","-0.338379","2.60925","21.3455","-40.387","0"
"0.00579834","-1.22067","9.90086","0.388321","0.140671","0.00788879","3.71094","19.3542","-41.2643","2"
"1.50902","0.27475","13.8946","0.346802","-0.306763","0.506577","3.88489","16.7221","-43.0557","2"
"5.08147","1.0899","14.7101","1.8262","-3.07846","2.63872","-4.60968","8.43048","-44.3024","2"
"-1.65501","-0.906464","-1.06685","4.23955","-3.63124","0.922607","-34.462","-11.3739","-26.5457","2"
"6.20193","-16.8455","5.81352","2.21172","0.569412","-0.125427","-39.4119","-25.0824","-7.65228","2"
"20.8121","-5.99591","15.1591","-2.15048","3.11819","2.7618","-35.2356","-6.83594","-26.7029","2"
"10.9821","4.03258","10.3171","-1.70749","1.97646","-1.77696","-21.0922","10.7101","-38.7329","2"
"-1.57594","0.948929","-0.777985","2.61241","-2.82669","-2.06232","-32.5546","-3.72162","-29.8325","2"
"4.92078","-15.1953","4.20213","2.26328","0.167801","-0.542511","-39.5187","-22.7173","-11.113","2"
"4.17452","-17.3337","3.52386","-2.94371","3.52473","2.32819","-31.9061","-5.46722","-30.2704","2"
"-5.44559","-4.67233","6.4717","-2.2253","4.91452","-3.77992","-5.98755","17.4286","-41.2125","2"
"-0.491058","-1.71666","6.84143","0.145874","2.11142","-2.11325","2.6062","21.9574","-39.7202","0"
"-0.846832","-1.8503","9.80571","0.394165","0.472534","-0.577225","3.55377","20.9427","-40.6784","0"
"0.646713","1.26901","14.2978","0.422211","0.000671387","0.208389","4.77142","18.5074","-42.2913","2"
"-1.16277","2.97081","16.1951","2.27402","-1.38774","1.32359","0.875854","8.34656","-45.6406","2"
"-0.0236359","-15.0372","3.27438","4.96616","-3.33586","2.51022","-25.6683","-19.0994","-29.9301","2"
"30.8326","-6.409","19.012","1.85522","1.46448","1.6232","-36.882","-25.5844","-12.8998","2"
"14.8201","9.17775","10.8045","-3.18164","3.05125","1.45396","-29.8569","-0.968933","-33.3893","2"
"-6.99628","-4.46591","-4.96919","-0.818848","0.576859","-1.77643","-21.3165","11.264","-39.7964","2"
"-2.07039","-13.4231","0.675201","3.69881","-2.58662","-1.13091","-34.9274","-9.78394","-27.8244","2"
"22.5625","-16.855","23.9112","0.577164","1.46046","0.589005","-36.5402","-21.9055","-19.5084","2"
"30.796","-7.87267","25.2099","-3.14099","3.38766","2.13235","-25.7065","7.33795","-36.026","2"
"4.33916","-1.80302","9.65613","-1.04535","5.19324","-4.26274","-3.91083","20.697","-41.2888","2"
"-0.769211","-1.6387","10.6516","0.562515","1.78807","-1.57971","4.59747","21.347","-42.1036","0"
"-0.716232","-1.09123","10.3051","0.551865","0.174911","-0.242615","5.83343","18.9896","-43.4738","2"
"1.47546","0.721161","14.2791","0.718643","-0.929581","0.508057","3.81012","14.8941","-45.6009","2"
"-0.785706","1.06868","-4.51022","3.8295","-4.08524","2.03874","-20.2026","-3.14636","-41.2353","2"
"-0.211548","2.11765","-4.43408","4.00597","-0.979431","0.456207","-36.0535","-25.116","-17.0883","2"
"35.7161","-10.3479","27.5811","-0.768112","2.76237","2.47578","-36.9736","-18.3731","-20.8694","2"
"12.1972","4.05415","7.06602","-2.40071","2.65758","0.319809","-24.3484","9.93195","-38.7787","2"
"-7.70261","-3.45519","-6.47708","1.53429","-1.07983","-2.39458","-24.1226","3.87115","-39.7369","2"
"-7.15536","-1.69223","-5.28395","2.93724","-1.27443","-1.09058","-38.3652","-19.9539","-19.3283","2"
"21.137","-12.0815","19.3435","-2.00571","2.6438","3.15439","-32.1487","-11.763","-30.0446","2"
"1.30222","-0.313889","7.25182","-2.55859","5.53488","-3.0739","-11.1282","17.8589","-41.5466","2"
"-1.17535","-1.85957","5.78433","0.291031","2.76617","-2.98352","0.907898","22.3053","-41.6199","0"
"-1.28735","-1.09329","10.204","0.249481","0.450592","-0.76033","3.01361","21.4661","-42.2623","0"
"0.697586","-0.842819","13.9601","0.316528","-0.0954285","0.156143","2.96936","19.8212","-43.2785","2"
"6.47008","4.08186","13.0851","2.14198","-2.80466","1.7487","-6.87103","10.8429","-45.6574","2"
"-7.91716","-16.3326","0.0882721","4.60594","-2.84663","1.25835","-31.1157","-13.1714","-31.3828","2"
"29.4142","-13.2008","20.3599","2.41231","0.877045","0.408524","-38.9664","-25.1923","-11.5814","2"
"29.7989","-10.0929","19.4232","-2.51479","3.13455","3.46072","-33.876","-1.44958","-30.957","2"
"-3.01929","0.108932","-1.04189","-1.20822","2.02054","-2.02371","-19.9814","15.8798","-40.3351","2"
"-7.10402","-4.21002","-2.38293","3.57152","-2.01978","-1.39816","-29.6524","-2.90985","-35.7254","2"
"15.2993","-22.3546","20.122","1.93974","0.28334","-0.240845","-37.3596","-22.3877","-19.4855","2"
"1.47479","-3.08186","10.5435","-3.67162","3.01276","3.21368","-29.0924","0.96283","-34.8556","2"
"0.399704","-1.31813","9.02502","-1.2762","5.78392","-4.0302","-3.86505","23.1949","-40.361","2"
"-0.221832","-1.21014","9.73401","0.634247","1.81436","-2.0757","1.89362","24.0006","-40.5457","0"
"0.251511","-0.0829925","15.3418","0.531158","0.494263","-0.427124","3.26843","21.5179","-42.2501","2"
"-1.9007","-0.915207","15.13","1.15408","-1.11321","0.946915","1.73187","15.744","-44.8776","2"
"-1.83743","1.52219","-3.28731","4.37025","-3.67998","2.30997","-20.0043","-6.19965","-40.0375","2"
"9.8219","-19.1033","3.96275","3.2659","0.00656128","0.750168","-37.3245","-24.4415","-16.2537","2"
"9.0779","-21.2535","5.77358","-2.5168","2.63211","3.44691","-34.1339","-5.61218","-30.1819","2"
"11.575","5.24086","10.5514","-1.47827","2.51286","-1.69643","-19.0796","15.5151","-40.6662","2"
"-0.178833","3.30537","-3.00212","3.34259","-2.05","-1.99698","-27.1973","-0.653076","-36.8576","2"
"3.32745","5.45439","-2.68311","2.30215","0.401779","0.377762","-36.1893","-21.489","-21.2311","2"
"4.8642","-21.8266","10.5692","-3.58592","2.75993","3.78951","-28.5019","3.91541","-34.5612","2"
"-1.52402","-2.62364","1.83057","-0.458115","6.10933","-4.02393","-0.602722","23.8541","-39.8621","2"
"-1.66425","-2.07436","4.08989","0.811554","1.76627","-2.08002","4.91638","23.5962","-40.3564","0"
"-1.45912","-1.49655","8.75369","0.510773","0.478928","-0.279953","6.61163","21.3547","-41.4444","2"
"0.307526","1.4971","22.6506","0.459381","-0.656021","0.443298","5.58624","18.5745","-43.1152","2"
"1.0183","2.17151","1.0985","4.04102","-3.53693","2.22229","-11.94","-0.1297","-42.9947","2"
"-5.43004","-3.54228","-1.78862","3.91821","-1.22522","0.666077","-34.1919","-25.2502","-18.1076","2"
"24.9644","2.01532","17.3998","-1.40021","2.64955","3.30077","-35.4797","-14.3524","-24.1821","2"
"19.7129","1.60942","14.9001","-2.08411","2.99274","-0.150604","-20.3857","14.2929","-38.884","2"
"-5.92986","-4.47072","-2.37009","2.74179","-1.52596","-2.26411","-22.7448","3.78571","-39.2258","2"
"8.4966","-26.5951","17.2507","2.70535","-0.762222","-0.554062","-36.4639","-22.2733","-19.1559","2"
"9.86211","-0.504196","12.115","-3.41791","2.86015","3.85297","-30.069","-0.975037","-32.6462","2"
"8.00758","0.252487","11.887","-1.13641","5.54256","-2.89227","-3.33099","23.7106","-39.1602","2"
"-0.232178","-1.07719","9.6275","1.03378","2.6342","-2.56113","5.18951","24.9069","-38.7283","0"
"0.433594","-0.537903","13.0183","0.358536","0.458908","-0.641251","5.65643","23.0103","-39.7873","2"
"5.96771","2.85396","19.2526","0.476303","-0.564621","0.430634","5.00946","20.5994","-40.4373","2"
"3.35051","2.14035","13.9039","3.74675","-3.10786","1.87157","-9.758","3.50342","-42.2531","2"
"-1.87334","6.37009","-3.05034","4.49776","-2.73283","1.50458","-34.8785","-22.5189","-15.6738","2"
"22.3706","-9.07431","24.5852","-1.22168","3.16048","2.43474","-37.2833","-14.9826","-19.2093","2"
"8.43079","4.79208","13.2956","-2.42017","3.58752","-0.250763","-18.5104","13.7817","-38.1134","2"
"-3.80154","0.933121","-3.02866","2.98456","-1.20013","-2.43048","-18.3456","3.17993","-40.0299","2"
"1.6156","-21.4393","6.39632","2.8943","-0.15625","-0.10614","-29.007","-25.5066","-23.0835","2"
"28.3418","-6.43642","20.6118","-3.39247","1.66194","4.31079","-30.0217","-3.16162","-30.8014","2"
"-0.243988","-0.806107","5.54805","-1.72354","4.91895","-2.22568","-7.36389","23.9975","-37.0438","2"
"0.0701599","-1.96916","7.5414","1.20563","4.19505","-2.68912","5.82275","24.3469","-37.8128","0"
"-2.6998","-0.943405","7.41914","0.622238","0.447464","-0.395157","10.524","20.5536","-39.4958","2"
"-4.33258","1.37692","20.4989","0.488586","-0.860504","0.492462","8.55865","17.9337","-41.3162","2"
"-2.62053","-0.658478","-0.0941162","4.53423","-2.86119","2.41876","-6.73065","-4.01459","-42.1783","2"
"-4.25333","-17.2868","-1.39069","3.54546","-0.197845","1.92563","-29.5547","-29.0436","-17.9718","2"
"44.3952","-8.25854","31.2807","-2.97874","2.37439","4.33395","-32.0023","-4.74243","-29.3457","2"
"9.49281","6.38948","11.9897","-0.713181","2.7793","-2.24542","-14.3875","15.1245","-40.8844","2"
"-11.6698","-6.28566","-10.2607","4.76175","-2.4274","-2.46291","-24.7299","-10.8612","-33.2077","2"
"6.75295","-23.8288","4.54131","-0.513855","0.930893","2.95836","-32.5851","-20.8481","-22.7951","2"
"15.9395","-9.79863","12.517","-3.12354","4.97366","1.37836","-17.0547","16.2827","-36.5448","2"
"-3.33206","-0.968506","6.77301","0.161438","5.00514","-4.17299","4.20837","27.5345","-35.1425","0"
"-3.82713","-2.11073","9.93678","1.24271","1.2473","-1.04718","6.11114","24.6078","-38.0951","2"
"-3.22671","0.42981","19.4426","0.422119","-0.0124512","0.202774","7.75604","20.4041","-40.4404","2"
"-0.0236206","2.21758","21.3484","1.70248","-1.52594","1.46913","3.86505","13.2065","-43.5577","2"
"-5.5876","-10.5321","-0.445663","5.41394","-2.53781","2.40599","-18.1076","-17.8177","-35.3546","2"
"-3.48485","-13.9143","0.604614","0.738297","1.47572","2.52585","-32.5058","-24.8856","-21.228","2"
"7.34184","2.65341","10.3496","-3.23141","3.2081","1.86891","-22.6273","6.20117","-39.4684","2"
"-4.34712","-4.02971","-4.96608","0.989563","0.757797","-2.11786","-11.3998","12.4756","-44.2062","2"
"-8.10495","-4.64516","-8.63188","4.38515","-2.69455","-0.85202","-27.8671","-19.0521","-29.6768","2"
"-3.75748","-17.5334","-0.151077","-0.721298","1.37538","3.19887","-35.1486","-16.5985","-23.1689","2"
"11.7503","-0.616577","11.1788","-2.30261","3.87891","1.6525","-18.9667","16.9495","-37.6709","2"
"7.22678","-1.27138","9.39754","0.751663","4.94531","-4.19438","2.61993","22.6166","-40.9012","2"
"0.293793","-0.920914","11.0571","1.29329","1.71576","-1.17145","11.2015","17.7506","-42.2134","0"
"-1.81961","-0.533401","10.7361","0.310257","-0.0309296","-0.249756","13.0341","14.4394","-43.3487","2"
"-3.23178","3.16537","17.8574","0.171448","-0.917572","0.183395","9.91516","13.53","-44.5831","2"
"-4.22537","3.93547","14.452","4.56364","-5.11238","2.32587","-17.7231","-4.89807","-38.3545","2"
"-8.22206","-3.45012","-7.44647","3.53885","-0.441666","0.346817","-38.6963","-24.2966","-8.99963","2"
"31.7859","-9.36133","19.4464","-1.43257","2.95105","3.62587","-38.6444","-5.97534","-21.6461","2"
"10.9799","4.69513","5.82449","-1.2076","2.6476","-1.04752","-22.7463","13.6993","-38.06","2"
"-2.64485","-2.46248","1.62514","2.48326","-2.63495","-2.54831","-30.0903","-2.31781","-32.5729","2"
"1.08681","-16.1912","0.697525","2.08318","0.159729","0.278336","-38.2477","-22.7325","-12.7792","2"
"25.5947","-13.7478","16.493","-2.55267","3.13741","3.35559","-33.5266","3.62396","-28.2242","2"
"2.04985","0.512268","8.83733","-1.66284","4.84326","-3.48793","-13.9679","20.7153","-38.6856","2"
"-0.978333","-1.58694","10.7943","0.118683","3.27678","-2.8186","2.50244","20.4483","-42.186","0"
"-1.35001","-1.1393","10.0074","0.306747","0.727371","-0.375046","7.47681","20.015","-42.3569","2"
"-3.53979","2.41057","10.5272","0.190887","-0.173599","0.241989","9.16138","17.7856","-43.0023","2"
"-2.00835","2.92128","9.29999","2.92111","-3.05763","1.70483","-2.87933","6.39191","-45.1996","2"
"5.08316","-20.8761","3.61794","5.37939","-3.1149","1.3952","-35.1807","-21.2769","-18.0969","2"
"28.0768","-7.60379","11.3657","0.302689","2.19661","2.87248","-39.9384","-16.7374","-14.0778","2"
"23.548","-7.88405","11.1422","-1.65192","2.98711","0.896652","-29.4174","9.94415","-33.7845","2"
"10.1136","1.44615","5.64636","1.31392","-0.594254","-2.34277","-26.1414","3.13416","-37.6663","2"
"4.16275","-19.0709","2.18835","2.5218","-1.72015","-1.08153","-38.7207","-19.5892","-16.4948","2"
"22.7755","-9.73749","12.247","-1.4687","1.85718","3.50801","-38.5544","-6.05469","-22.4243","2"
"7.71295","0.0111389","9.24368","-2.79388","3.67528","0.129349","-20.517","21.8903","-33.6945","2"
"0.193375","-2.71461","6.82636","0.294662","6.33368","-3.84396","-1.73798","25.3326","-38.0646","0"
"-0.547577","-2.06813","8.73529","0.547684","0.860001","-0.977463","6.9458","23.8113","-39.7705","0"
"2.41884","0.357437","17.0132","0.252945","-0.0816803","-0.0956879","6.26526","22.0657","-40.3961","2"
"0.110641","0.579803","4.01886","2.21561","-2.01849","1.11421","-2.49939","14.5401","-44.1269","2"
"1.96919","1.21011","3.384","5.89641","-3.63222","2.05197","-28.2333","-17.6956","-27.4948","2"
"8.70869","-23.5946","10.1934","0.681183","1.34082","2.61479","-39.6683","-19.6121","-12.9257","2"
"23.5022","-1.66","12.266","-2.29678","3.32639","2.42424","-29.6326","13.2278","-31.0501","2"
"23.5806","-0.694031","9.56184","1.07718","1.76302","-2.95901","-17.8986","13.1363","-40.4709","2"
"-4.40042","-4.5743","-5.34476","4.56726","-2.43756","-1.35597","-29.2175","-17.7368","-27.5879","2"
"7.8623","-23.0088","12.5613","-0.342163","0.947601","3.2234","-36.5005","-20.3033","-16.5649","2"
"19.5792","-2.91463","16.74","-3.55836","4.7885","1.93402","-23.3856","19.2276","-32.1518","2"
"0.69162","-1.49109","8.59021","-0.671707","6.59428","-3.90771","-3.7262","30.5466","-33.3542","2"
"-0.426559","-1.75658","10.216","0.618835","1.68231","-1.63527","-0.622559","28.833","-36.2152","0"
"1.25075","0.841812","25.1386","0.574844","-0.0228271","0.0373993","-0.967407","25.943","-38.7421","2"
"-6.02039","-5.83517","0.354462","1.53905","-1.89052","1.46223","-5.01709","20.4605","-42.0319","2"
"-9.52154","-11.7407","0.81871","6.07878","-4.6068","1.83105","-31.5537","-7.08313","-30.2841","2"
"-5.16908","-14.3966","0.486801","2.11136","0.745834","0.878861","-40.0467","-22.6624","-10.1425","2"
"20.5869","-22.165","16.049","-2.42415","2.73228","4.04158","-35.9207","4.67072","-26.5976","2"
"-8.23111","-5.68307","1.45143","-0.570511","2.46149","-1.84605","-19.1055","21.8613","-36.3968","2"
"-2.73531","-7.12296","-4.74963","3.94649","-1.35271","-3.10034","-28.6942","-3.64685","-34.9594","2"
"-2.98444","-10.8806","-4.05235","2.07816","0.294312","1.47931","-36.763","-23.6526","-15.9882","2"
"8.03497","-26.589","11.7541","-3.60155","3.89073","3.88354","-30.545","11.5753","-29.7958","2"
"4.86876","-3.93352","12.4166","-0.898026","7.29338","-4.70381","-3.88031","29.0833","-35.6598","2"
"-0.450211","-1.6992","8.15428","0.621429","1.63312","-1.4593","-0.860596","28.5675","-36.7188","0"
"-1.01314","-2.23088","8.9521","0.457397","0.0188446","-0.202423","-1.90125","25.4105","-39.8666","2"
"-1.42068","-2.53601","12.2824","0.969101","-1.80061","1.47807","-4.60358","22.2","-41.1896","2"
"-5.48132","-3.93101","-3.83154","5.09572","-3.77214","1.79042","-24.2126","0.494385","-37.5107","2"
"6.63586","-23.9602","3.20512","3.47073","0.34201","0.28978","-35.1257","-25.8972","-14.9582","2"
"18.4651","-10.3824","13.5543","-2.54404","2.15761","4.88585","-35.7513","0.918579","-26.1185","2"
"12.9806","5.29213","4.07423","-0.619598","2.44444","-2.04065","-21.1334","19.1132","-36.5814","2"
"-9.02036","-3.71838","-7.77048","3.50166","-2.73027","-3.10739","-33.078","-5.27039","-27.98","2"
"4.67955","-22.9437","5.11945","1.33507","1.30885","1.31425","-37.8036","-22.554","-12.3016","2"
"15.0774","-10.1","20.8268","-4.07898","4.19803","3.54376","-26.6891","13.5391","-30.7785","2"
"-1.22745","-2.62572","3.23201","-0.016861","6.69121","-4.08713","-2.63214","29.3152","-34.4223","2"
"-1.07632","-1.90222","8.0098","0.891998","1.94655","-1.74701","3.13721","26.799","-36.9064","0"
"-0.324921","-1.13959","8.85417","0.450653","0.189926","-0.0105743","5.45959","23.8449","-39.0228","2"
"1.45438","3.23286","18.2815","0.884583","-1.56985","1.18733","1.1673","20.3217","-43.0908","2"
"-8.03734","-3.74992","-2.9785","5.8419","-3.90593","1.87578","-21.7026","-8.67462","-34.8282","2"
"1.63693","-22.1445","1.55608","2.38417","0.820236","1.07985","-33.5205","-28.2578","-11.5753","2"
"35.9952","-10.2748","19.8405","-2.85933","2.46312","4.86058","-34.4192","2.46582","-26.2772","2"
"14.2614","6.21155","13.0302","-0.744842","2.53259","-2.03757","-19.8166","20.5688","-35.9253","2"
"-3.88988","-23.6449","0.681564","4.07159","-1.7327","-2.62813","-28.3508","-4.47693","-33.0704","2"
"1.74483","-25.0476","4.90169","1.01698","0.698959","1.59642","-34.3277","-22.1283","-19.2093","2"
"-0.0621948","-2.18121","6.2227","-2.76717","4.14526","3.36421","-25.6683","14.0228","-32.0786","2"
"-1.01585","-2.06027","4.08965","-0.871139","6.32065","-4.53665","-1.37024","29.0924","-34.5352","0"
"-1.78242","-1.39749","8.40855","0.996109","1.98442","-1.58885","2.24304","28.273","-35.7071","0"
"-1.43068","-0.671906","17.9167","0.761459","0.434067","-0.0882721","5.07202","23.5718","-39.5813","2"
"-2.08975","0.603516","19.7241","0.519943","-0.764511","0.465225","4.15802","20.2988","-41.8442","2"
"-3.56844","-6.6261","-2.29303","5.73405","-3.67082","2.69321","-15.7196","-4.3045","-38.7039","2"
"-4.32831","-8.14867","-1.23224","3.26889","0.770889","1.61591","-34.1339","-26.8372","-13.6444","2"
"26.0111","-4.06627","11.326","-2.8353","2.37991","4.63925","-34.7427","2.23846","-26.5549","2"
"-3.26765","-1.91785","3.65625","-0.875519","2.50764","-2.0378","-20.755","22.2229","-34.2575","2"
"-5.58867","-2.10664","-0.451859","3.9416","-1.6261","-2.39699","-30.162","-2.96631","-32.4921","2"
"-2.74524","-1.3325","-0.397766","1.73233","0.344696","1.10112","-37.3856","-21.7377","-15.4297","2"
"10.724","-27.8995","9.58543","-3.12721","2.86212","4.5795","-31.5765","12.7396","-26.944","2"
"13.0451","-5.8242","12.669","-1.41849","6.94441","-3.69115","-7.97272","30.9204","-31.5842","2"
"-0.567459","-2.23103","8.59518","1.04663","2.76872","-1.93169","-2.6535","28.1906","-36.2106","0"
"-2.14455","-0.84845","3.55446","0.593491","0.317444","-0.197632","0.325012","23.5641","-39.6469","2"
"4.534","1.01021","21.681","0.358307","-1.19194","0.777634","-1.7334","21.1426","-41.3696","2"
